"Time (s)","Linear Acceleration x (m/s^2)","Linear Acceleration y (m/s^2)","Linear Acceleration z (m/s^2)","Absolute acceleration (m/s^2)"
2.927058800E-2,-2.913594246E-1,1.324831247E-1,8.017082214E-1,8.632370271E-1
3.729656700E-2,-2.771060467E-1,1.073647738E-1,1.024271965E0,1.066512079E0
4.535306200E-2,-2.452394962E-1,3.612256050E-2,1.298782349E0,1.322226470E0
5.337904100E-2,-2.603495121E-1,-7.419860363E-2,1.518024445E0,1.541974551E0
6.140501900E-2,-2.581393719E-1,-1.444329023E-1,1.700041771E0,1.725583618E0
6.943099800E-2,-2.890589237E-1,-2.193415165E-1,1.774371147E0,1.811093242E0
7.745697600E-2,-3.584372997E-1,-3.175420165E-1,1.708254814E0,1.774103926E0
8.548295500E-2,-4.168083668E-1,-4.614715576E-1,1.514637947E0,1.637318944E0
9.353945000E-2,-4.538359642E-1,-5.759925842E-1,1.277549744E0,1.473047144E0
1.015654290E-1,-5.349006653E-1,-6.914939880E-1,1.065662384E0,1.378375484E0
1.095914070E-1,-5.522034168E-1,-7.709401250E-1,8.909158707E-1,1.301156554E0
1.176173860E-1,-4.809691906E-1,-7.875542045E-1,6.061401367E-1,1.104073753E0
1.256433640E-1,-2.864494324E-1,-7.627941966E-1,2.955827713E-1,8.667626194E-1
1.336693430E-1,-5.331563950E-2,-6.602852345E-1,5.957603455E-2,6.651078500E-1
1.417258380E-1,2.593796253E-1,-5.774325728E-1,-2.462091446E-1,6.792091792E-1
1.497518170E-1,4.612860680E-1,-4.522465467E-1,-3.969583511E-1,7.582134977E-1
1.577777950E-1,5.872738361E-1,-2.752319872E-1,-4.366731644E-1,7.818738120E-1
1.658037740E-1,5.975496769E-1,-8.084553480E-2,-3.665285110E-1,7.056520150E-1
1.738297520E-1,5.958349705E-1,4.322084785E-2,-2.122344971E-1,6.339801538E-1
1.818557310E-1,5.688800812E-1,7.740017772E-2,7.423686981E-2,5.789010685E-1
1.899122260E-1,4.458911419E-1,3.401100636E-3,3.975448608E-1,5.973879763E-1
1.979382050E-1,3.692321777E-1,-2.760633826E-1,7.170476913E-1,8.524674680E-1
2.059641830E-1,3.130145073E-1,-5.497678518E-1,1.047259331E0,1.223509247E0
2.139901620E-1,3.816983700E-1,-7.445313931E-1,1.472734451E0,1.693802646E0
2.220161400E-1,3.679897785E-1,-8.760108948E-1,1.912407875E0,2.135442681E0
2.300421190E-1,4.021391869E-1,-9.693062305E-1,2.202210426E0,2.439467412E0
2.380680970E-1,4.899108410E-1,-9.894003868E-1,2.275716782E0,2.529389774E0
2.461245930E-1,5.994975567E-1,-1.011912823E0,2.279072762E0,2.564671038E0
2.541505710E-1,6.312848330E-1,-9.218258858E-1,2.111933708E0,2.389256682E0
2.621765500E-1,4.066258669E-1,-7.291090488E-1,1.707891464E0,1.901009693E0
2.702025280E-1,2.546406984E-1,-5.731600523E-1,1.367006302E0,1.504014814E0
2.782285070E-1,3.705203533E-2,-3.426631093E-1,1.000460625E0,1.058164600E0
2.862850020E-1,-4.152429104E-2,-1.439070702E-1,5.142583847E-1,5.356259869E-1
2.943109800E-1,-1.195753813E-1,-9.828150272E-3,1.143474579E-1,1.657413813E-1
3.023369580E-1,-2.048525810E-1,1.177592278E-1,-2.921752930E-1,3.757635127E-1
3.103629370E-1,-2.430938482E-1,1.963779032E-1,-5.864505768E-1,6.645172525E-1
3.183889160E-1,-1.891846657E-1,3.253149390E-1,-8.621435165E-1,9.406976615E-1
3.264148950E-1,-1.137106419E-1,5.427830219E-1,-9.886255264E-1,1.133544860E0
3.344408730E-1,-9.739756584E-2,6.983017921E-1,-8.889207840E-1,1.134588841E0
3.424973680E-1,-2.149000168E-1,5.317786932E-1,-8.053579330E-1,9.887224060E-1
3.505233460E-1,-2.850494385E-1,1.668443680E-1,-8.601293564E-1,9.213646049E-1
3.585493250E-1,1.074149132E0,-5.481697321E-1,-1.512525082E0,1.934429770E0
3.665753030E-1,1.093481898E0,-1.139736176E0,-1.833522797E0,2.420022119E0
3.746012820E-1,1.157888770E0,-1.365432739E0,-2.338879585E0,2.945415197E0
3.826272600E-1,1.136337876E0,-1.391150236E0,-2.580656052E0,3.144256415E0
3.906532400E-1,1.129695654E0,-1.145233512E0,-2.436858654E0,2.919940439E0
3.986792180E-1,1.313321710E0,-6.484048367E-1,-1.877780437E0,2.381449583E0
4.067357130E-1,1.579818368E0,-8.911299706E-2,-1.077840805E0,1.914551645E0
4.147616910E-1,1.716725707E0,3.122622371E-1,-2.306852341E-1,1.760076855E0
4.227876700E-1,1.789972067E0,5.582326651E-1,4.592847824E-1,1.930431615E0
4.308136480E-1,1.706878543E0,8.884501457E-1,7.586479187E-1,2.068411150E0
4.388396270E-1,1.477895856E0,1.188172460E0,8.314714432E-1,2.070573523E0
4.468656050E-1,1.365524054E0,1.451331258E0,4.457893372E-1,2.041995713E0
4.548915830E-1,1.239915609E0,1.712073445E0,2.419185638E-1,2.127700823E0
4.629480790E-1,1.158121943E0,1.835095167E0,2.119951248E-1,2.180312510E0
4.709740580E-1,1.100696325E0,1.840700865E0,4.705743790E-1,2.195712258E0
4.790000360E-1,1.166042805E0,1.689839959E0,6.985015869E-1,2.168667650E0
4.870260150E-1,1.063684225E0,1.319209576E0,9.244222641E-1,1.930361251E0
4.950519930E-1,5.061476231E-1,9.662561417E-1,1.073628426E0,1.530527472E0
5.030779710E-1,2.810132504E-1,4.165088534E-1,9.220409393E-1,1.050051220E0
5.111039500E-1,4.259557724E-1,-2.659178376E-1,-3.139572144E-1,5.922159647E-1
5.191299280E-1,5.528144836E-1,-1.305975676E0,-1.358736038E0,1.964011186E0
5.271864240E-1,6.361687183E-1,-2.433730125E0,-2.194460392E0,3.338174557E0
5.352124030E-1,8.363590240E-1,-3.082260847E0,-3.009774208E0,4.388458628E0
5.432383810E-1,5.868406296E-1,-2.257979155E0,-3.352329731E0,4.084233883E0
5.512643590E-1,7.495784760E-2,-8.302651644E-1,-2.687767982E0,2.814081671E0
5.592903380E-1,-4.395635128E-1,2.946078777E-1,-1.396501064E0,1.493393821E0
5.673468340E-1,4.545068741E-2,6.625173092E-1,-1.084245682E0,1.271449428E0
5.753728120E-1,8.231608868E-1,6.893856525E-1,-1.388262749E0,1.755027032E0
5.833987910E-1,1.646899581E0,6.115555167E-1,-1.916203976E0,2.599637678E0
5.914247690E-1,2.200655937E0,1.548117995E-1,-1.908704758E0,2.917191646E0
5.994507480E-1,2.537871122E0,-2.935370207E-1,-9.320049286E-1,2.719482856E0
6.075072430E-1,3.253972769E0,-7.345191240E-1,1.413688660E-1,3.338838463E0
6.155332220E-1,3.683105707E0,-1.190048575E0,8.422679901E-1,3.961173895E0
6.235592000E-1,3.791498661E0,-1.724795341E0,1.581229210E0,4.455408722E0
6.315851790E-1,3.575766325E0,-2.100725174E0,2.112164497E0,4.654072403E0
6.396416740E-1,3.198558331E0,-2.262205124E0,2.420476913E0,4.605111932E0
6.476676530E-1,2.824019909E0,-2.134313583E0,2.623428345E0,4.405991284E0
6.556936310E-1,2.998071671E0,-1.977579117E0,2.474204063E0,4.361300110E0
6.637196100E-1,4.146702290E0,-2.180205345E0,1.510045052E0,4.922262821E0
6.717455880E-1,5.897990227E0,-2.900937080E0,5.758981705E-1,6.597983280E0
6.798020830E-1,8.504306793E0,-3.897712231E0,8.549308777E-2,9.355356954E0
6.878280620E-1,1.053337765E1,-4.754260063E0,5.472660065E-1,1.156955200E1
6.958540400E-1,1.185290051E1,-5.296241283E0,1.579524040E0,1.307808542E1
7.038800180E-1,1.303519344E1,-6.854786873E0,3.642677307E0,1.517146892E1
7.119059970E-1,1.329695129E1,-7.899333000E0,4.911592484E0,1.622751109E1
7.199624930E-1,1.245660782E1,-8.395219803E0,5.526084900E0,1.600576172E1
7.279884710E-1,1.073231030E1,-8.341769218E0,4.514103889E0,1.432287443E1
7.360144500E-1,9.320919991E0,-8.007245064E0,3.073778152E0,1.266663472E1
7.440404280E-1,8.072457314E0,-7.436071396E0,1.314557076E0,1.105385838E1
7.520969240E-1,7.162066936E0,-6.841161251E0,-5.647821426E-1,9.920467173E0
7.601229020E-1,6.282786369E0,-6.188467503E0,-2.357990265E0,9.128562465E0
7.681488810E-1,4.679224968E0,-5.337045193E0,-3.640315056E0,7.976909890E0
7.761748590E-1,2.145099163E0,-3.930737495E0,-3.956838608E0,5.975677321E0
7.842313550E-1,4.024434090E-2,-2.311990023E0,-3.682669163E0,4.348444507E0
7.922573340E-1,-2.365067482E0,-1.341133237E0,-2.544553280E0,3.723833233E0
8.002833120E-1,-3.779958725E0,-3.256166279E-1,-7.518539429E-1,3.867738164E0
8.083092900E-1,-3.941082716E0,1.161729991E-1,3.138580322E-1,3.955266869E0
8.163657850E-1,-4.113122940E0,1.971098185E-1,-2.623672485E-1,4.126193061E0
8.243917640E-1,-5.273287296E0,1.081380367E0,-2.521314621E-1,5.388925002E0
8.324177420E-1,-6.945137024E0,2.878350258E0,-4.442834854E-1,7.531083342E0
8.404437220E-1,-9.486913681E0,6.038508892E0,-3.205966949E-1,1.125024013E1
8.485002160E-1,-1.195053482E1,9.930109978E0,-3.528995514E-1,1.554177933E1
8.565261950E-1,-1.415727234E1,1.369293213E1,8.659076691E-2,1.969599574E1
8.645521730E-1,-1.558133984E1,1.636359406E1,1.132017612E0,2.262359002E1
8.725781520E-1,-1.648416519E1,1.817149162E1,2.776494026E0,2.469088352E1
8.806346480E-1,-1.624367905E1,1.958390617E1,5.852400780E0,2.610818042E1
8.886606260E-1,-1.458182526E1,2.044391060E1,9.587910652E0,2.687956732E1
8.966866040E-1,-1.296390533E1,2.063205147E1,1.259581566E1,2.742989175E1
9.047125830E-1,-1.183230305E1,1.993618202E1,1.313355446E1,2.664479314E1
9.127385610E-1,-1.100082779E1,1.913459778E1,1.229483223E1,2.526487569E1
9.207950570E-1,-1.104508209E1,1.861723328E1,1.094044876E1,2.425466208E1
9.288210360E-1,-1.077556992E1,1.783017159E1,9.290485382E0,2.281098517E1
9.368470140E-1,-1.023518658E1,1.714682961E1,7.842340469E0,2.145402325E1
9.448729920E-1,-9.786959648E0,1.647684669E1,7.092903614E0,2.043478255E1
9.529294870E-1,-8.797818184E0,1.554004288E1,6.950731754E0,1.916265142E1
9.609554670E-1,-7.569176674E0,1.482252502E1,8.116766930E0,1.851706211E1
9.689814450E-1,-5.844376564E0,1.379334927E1,1.081857681E1,1.847849630E1
9.770074240E-1,-3.533866405E0,1.262644005E1,1.477650070E1,1.975500375E1
9.850639190E-1,-1.203533649E0,1.184697628E1,1.901403236E1,2.243507894E1
9.930898970E-1,8.279232979E-1,1.085647392E1,2.441584969E1,2.673354071E1
1.001115875E0,2.993480682E0,1.000225925E1,2.878248596E1,3.061760302E1
1.009141854E0,5.992903709E0,9.883417130E0,3.373860168E1,3.566356786E1
1.017198350E0,1.005056000E1,9.373538971E0,4.035646820E1,4.263239982E1
1.025224328E0,1.424052238E1,7.211028576E0,4.559434509E1,4.830771900E1
1.033250307E0,1.977157593E1,3.801915646E0,4.974893188E1,5.366866871E1
1.041276285E0,2.538870430E1,2.397427559E-1,5.150592041E1,5.742389415E1
1.049332781E0,3.042417336E1,-4.143139839E0,5.051329803E1,5.911335898E1
1.057358759E0,3.389719009E1,-8.675943375E0,4.704871750E1,5.863338049E1
1.065384738E0,3.551893997E1,-1.238328457E1,4.276097107E1,5.695122018E1
1.073410716E0,3.607688522E1,-1.635410500E1,3.632049942E1,5.374176286E1
1.081467212E0,3.456165314E1,-1.973092461E1,2.874352455E1,4.909182678E1
1.089493190E0,3.108842087E1,-2.163415909E1,2.111832047E1,4.336484995E1
1.097519169E0,2.589978218E1,-2.222580719E1,1.432002354E1,3.701146169E1
1.105545147E0,2.089599800E1,-2.222470856E1,9.559831619E0,3.196827777E1
1.113601642E0,1.536614132E1,-2.165809631E1,4.843058586E0,2.699345571E1
1.121627621E0,1.089660645E1,-2.070180511E1,8.639316559E-1,2.341040677E1
1.129653599E0,7.777719498E0,-1.965021515E1,-2.525791645E0,2.128387886E1
1.137679578E0,5.810162067E0,-1.864564896E1,-5.363314629E0,2.025298378E1
1.145705557E0,4.574347496E0,-1.774242783E1,-7.365335464E0,1.974757116E1
1.153762052E0,3.594593048E0,-1.676210213E1,-9.066122055E0,1.939287849E1
1.161788030E0,2.913636208E0,-1.609179306E1,-1.058204651E1,1.947857254E1
1.169814009E0,1.831676483E0,-1.527809334E1,-1.094700909E1,1.888417811E1
1.177870505E0,-2.741575241E-2,-1.427861977E1,-1.034661961E1,1.763327171E1
1.185896483E0,-1.365983486E0,-1.353125572E1,-9.422624588E0,1.654529076E1
1.193922461E0,-2.276865244E0,-1.316611481E1,-8.043189049E0,1.559562710E1
1.201948440E0,-2.761764765E0,-1.317302132E1,-6.635737896E0,1.500629377E1
1.210004936E0,-3.156053543E0,-1.308501053E1,-5.357089996E0,1.448711799E1
1.218030914E0,-3.560144424E0,-1.290303612E1,-4.254174232E0,1.404496236E1
1.226056893E0,-3.795361519E0,-1.293494320E1,-3.534259558E0,1.393587153E1
1.234082871E0,-4.116272449E0,-1.318812561E1,-2.901401281E0,1.411695737E1
1.242108849E0,-4.389941692E0,-1.353047371E1,-2.514420033E0,1.444533194E1
1.250165344E0,-4.921884537E0,-1.376170921E1,-2.219460964E0,1.478294946E1
1.258191323E0,-5.843803406E0,-1.377137661E1,-2.015391827E0,1.509512028E1
1.266217302E0,-6.558384895E0,-1.374967957E1,-1.850522518E0,1.534570084E1
1.274243281E0,-7.171805382E0,-1.387426376E1,-1.704381943E0,1.571098040E1
1.282299775E0,-7.503407955E0,-1.415231133E1,-1.662626028E0,1.610445193E1
1.290325754E0,-7.572756767E0,-1.449703979E1,-1.678552628E0,1.644166496E1
1.298351732E0,-7.743628502E0,-1.462927055E1,-1.686128139E0,1.663797967E1
1.306377711E0,-7.864520073E0,-1.450183201E1,-1.663965702E0,1.658078977E1
1.314434207E0,-8.039444923E0,-1.438127995E1,-1.693857551E0,1.656270029E1
1.322460185E0,-8.504631042E0,-1.420153618E1,-1.795603991E0,1.665042260E1
1.330486164E0,-9.004033089E0,-1.367935658E1,-1.983334184E0,1.649639423E1
1.338512142E0,-9.607943535E0,-1.290706921E1,-2.022207260E0,1.621710013E1
1.346568638E0,-1.020673084E1,-1.217055416E1,-1.812052131E0,1.598697207E1
1.354594616E0,-1.055396652E1,-1.137918663E1,-9.776111841E-1,1.555081417E1
1.362620595E0,-1.060140896E1,-1.084905720E1,3.822909594E-1,1.517359748E1
1.370677090E0,-1.061377239E1,-1.035485649E1,2.053884029E0,1.496975808E1
1.378703068E0,-1.115552235E1,-9.582243919E0,5.891707420E0,1.584226290E1
1.386729047E0,-1.173326302E1,-8.826289177E0,5.571063042E0,1.570380798E1
1.394755026E0,-1.137468052E1,-8.581670761E0,4.758460045E0,1.502236240E1
1.402811521E0,-1.165481949E1,-8.094741821E0,3.225538731E0,1.455210509E1
1.410837499E0,-1.214293480E1,-7.259247780E0,7.300231457E-1,1.416617371E1
1.418863478E0,-1.309420967E1,-6.440000057E0,-1.297460079E0,1.464975530E1
1.426889456E0,-1.400987816E1,-6.020654202E0,-2.069595575E0,1.538857332E1
1.434945952E0,-1.442574120E1,-6.194437981E0,-1.122885466E0,1.573956615E1
1.442971930E0,-1.500516701E1,-6.636014938E0,2.358490944E0,1.657571147E1
1.450997909E0,-1.528267193E1,-7.063605309E0,5.315430641E0,1.765526505E1
1.459054405E0,-1.567470455E1,-6.991560936E0,7.638257027E0,1.878619859E1
1.467080383E0,-1.657968140E1,-5.990153790E0,8.410977364E0,1.953234031E1
1.475106361E0,-1.756531525E1,-4.434718609E0,7.700543404E0,1.968515678E1
1.483132340E0,-1.838172913E1,-2.502542496E0,5.659986019E0,1.939551820E1
1.491188835E0,-1.863786697E1,-8.389685154E-1,3.307641983E0,1.894767661E1
1.499214814E0,-1.805889511E1,5.602579117E-1,1.084600329E0,1.810010882E1
1.507240793E0,-1.687157440E1,1.754150867E0,-6.425731182E-1,1.697468610E1
1.515266771E0,-1.555411720E1,2.764343739E0,-1.606510401E0,1.587932725E1
1.523323266E0,-1.340155029E1,4.007434368E0,-2.295852184E0,1.417504913E1
1.531349244E0,-1.099892712E1,5.119841576E0,-2.263092995E0,1.234142477E1
1.539375223E0,-8.951465607E0,5.787543774E0,-1.422886372E0,1.075402274E1
1.547401201E0,-7.012806892E0,6.589057446E0,1.693558693E-2,9.622651679E0
1.555427180E0,-5.958326340E0,7.850318432E0,1.278860807E0,9.938039908E0
1.563483676E0,-5.156860352E0,1.062209606E1,2.906937361E0,1.216028035E1
1.571509654E0,-3.448204517E0,1.562650871E1,5.155184746E0,1.681231152E1
1.579535632E0,-1.575069427E-1,2.193635559E1,8.073543549E0,2.337542749E1
1.587561611E0,6.226446152E0,2.715298080E1,1.005448627E1,2.961664553E1
1.595618107E0,1.238348007E1,2.944100571E1,1.036789799E1,3.358000453E1
1.603644085E0,1.830582047E1,3.207176590E1,1.057424545E1,3.841244457E1
1.611670064E0,1.955906868E1,3.282014847E1,1.389103889E1,4.065317054E1
1.619696042E0,2.229011536E1,2.976100922E1,2.160493851E1,4.300395656E1
1.627752538E0,2.483091354E1,2.475131607E1,3.739824295E1,5.126236915E1
1.635778516E0,2.732529449E1,2.000796509E1,5.302307892E1,6.291611307E1
1.643804495E0,3.234345245E1,1.371354675E1,6.551435089E1,7.433902376E1
1.651830473E0,3.702502060E1,7.539094925E0,6.822920990E1,7.799304576E1
1.659886968E0,3.976189423E1,3.785001516E0,6.259072876E1,7.424913330E1
1.667912947E0,3.959407043E1,1.776556253E0,5.298613739E1,6.616930800E1
1.675938925E0,3.711291504E1,-3.763380051E-1,4.354684448E1,5.721746025E1
1.683995421E0,3.295665741E1,-4.048427582E0,3.222711945E1,4.627221911E1
1.692021399E0,2.868348694E1,-7.596308231E0,2.160919189E1,3.670699519E1
1.700047378E0,2.474298859E1,-1.006878376E1,1.249226761E1,2.948987353E1
1.708073356E0,2.104671478E1,-1.118327904E1,5.598929882E0,2.448219657E1
1.716129852E0,1.805223083E1,-1.123188591E1,1.273375988E0,2.129929073E1
1.724155830E0,1.443644810E1,-1.040219402E1,-2.703336000E0,1.799790820E1
1.732181809E0,1.063264751E1,-9.104878426E0,-5.647816658E0,1.509469567E1
1.740207787E0,8.147151947E0,-8.079128265E0,-8.115778923E0,1.405397687E1
1.748233766E0,6.198143959E0,-7.157723904E0,-9.685054779E0,1.354438209E1
1.756290262E0,4.729663372E0,-6.370244980E0,-1.052208519E1,1.317816427E1
1.764316240E0,3.238310814E0,-5.489241600E0,-1.117144966E1,1.286155970E1
1.772342218E0,1.808556080E0,-4.966535568E0,-1.151740837E1,1.267233389E1
1.780368197E0,5.113139153E-1,-4.934138775E0,-1.143482590E1,1.246444586E1
1.788394175E0,-5.237131119E-1,-5.223570824E0,-1.067592716E1,1.189686464E1
1.796450670E0,-1.054521799E0,-5.774299145E0,-9.522438049E0,1.118621353E1
1.804476649E0,-1.372506142E0,-6.513320923E0,-7.567085266E0,1.007809019E1
1.812502628E0,-1.511757374E0,-7.323568344E0,-5.363799095E0,9.202738961E0
1.820528606E0,-1.607675791E0,-8.103116035E0,-3.417040110E0,8.939869912E0
1.828585101E0,-1.900961876E0,-8.804049492E0,-1.922334790E0,9.209794490E0
1.836611080E0,-2.378806114E0,-9.231150627E0,-1.048593760E0,9.590224674E0
1.844637058E0,-3.119370461E0,-9.469372749E0,-6.111843586E-1,9.988645487E0
1.852663037E0,-3.957181215E0,-9.620937347E0,-7.971694469E-1,1.043346528E1
1.860689015E0,-4.746571541E0,-9.802326202E0,-1.331660390E0,1.097218573E1
1.868745511E0,-5.419444561E0,-9.969222069E0,-2.119084597E0,1.154323557E1
1.876771489E0,-5.947992325E0,-1.016306686E1,-2.803882599E0,1.210488738E1
1.884797468E0,-6.510751247E0,-1.025485420E1,-3.427095652E0,1.262128762E1
1.892823446E0,-6.488420486E0,-1.012227249E1,-3.856441975E0,1.262664427E1
1.900849425E0,-6.829962730E0,-1.026141071E1,-3.984580994E0,1.295460638E1
1.908875403E0,-7.544825554E0,-1.059291840E1,-3.631375790E0,1.350263689E1
1.916931899E0,-8.003189087E0,-1.075518227E1,-3.188240051E0,1.378005282E1
1.924957877E0,-8.169256210E0,-1.091334915E1,-2.698107719E0,1.389668025E1
1.932983856E0,-8.552192688E0,-1.118645859E1,-1.888606906E0,1.420717043E1
1.941009834E0,-8.955617905E0,-1.146726608E1,-9.340948462E-1,1.457991141E1
1.949035813E0,-9.327588081E0,-1.183068943E1,-2.250407934E-1,1.506717476E1
1.957092309E0,-9.663913727E0,-1.214530754E1,2.075076103E-2,1.552095855E1
1.965118287E0,-9.984262466E0,-1.219472122E1,-7.141327858E-2,1.576076846E1
1.973144265E0,-1.017579269E1,-1.180637550E1,-5.591708422E-1,1.559647176E1
1.981170244E0,-1.096520805E1,-1.111271667E1,-1.585385799E0,1.569209061E1
1.989196222E0,-1.271015167E1,-1.046886635E1,-2.539857626E0,1.666121229E1
1.997222201E0,-1.412110519E1,-1.015445232E1,-2.720957518E0,1.760460518E1
2.005278697E0,-1.595688152E1,-1.013283539E1,-1.011269569E0,1.892931819E1
2.013304675E0,-1.627934265E1,-1.046708870E1,2.076035023E0,1.946501642E1
2.021330653E0,-1.462921906E1,-1.087366772E1,5.789360046E0,1.912504613E1
2.029356632E0,-1.220495796E1,-1.105621910E1,9.370966911E0,1.894771755E1
2.037382610E0,-1.059749317E1,-1.052842331E1,1.151390362E1,1.886066105E1
2.045408589E0,-1.040273476E1,-9.175328255E0,1.278042698E1,1.886114664E1
2.053465084E0,-1.209633827E1,-7.278372765E0,1.281387615E1,1.906545388E1
2.061491062E0,-1.485227776E1,-5.498525620E0,1.127220058E1,1.943930154E1
2.069517041E0,-1.792825699E1,-4.244118690E0,8.700488091E0,2.037482356E1
2.077543020E0,-2.013147354E1,-3.451092482E0,6.018907070E0,2.129350860E1
2.085599515E0,-2.171110535E1,-2.453144073E0,3.169337749E0,2.207792366E1
2.093625493E0,-2.219392014E1,-1.220970392E0,6.613457203E-1,2.223731634E1
2.101651472E0,-2.153149605E1,-3.948092461E-2,-1.228379369E0,2.156654346E1
2.109677450E0,-2.004800224E1,9.808580875E-1,-2.473718643E0,2.022384139E1
2.117703429E0,-1.836528778E1,1.497374535E0,-3.099917889E0,1.868516569E1
2.125759924E0,-1.633558083E1,1.942637444E0,-3.242419720E0,1.676718005E1
2.133785903E0,-1.419067860E1,2.442121267E0,-2.872342110E0,1.468297192E1
2.141811881E0,-1.201674843E1,3.079789400E0,-2.193919897E0,1.259764383E1
2.149837860E0,-9.623960495E0,4.189132690E0,-9.707853794E-1,1.054096165E1
2.157863838E0,-7.417585850E0,5.460669041E0,6.088495255E-1,9.230936245E0
2.165920334E0,-4.060481071E0,7.955213547E0,3.646107197E0,9.647125313E0
2.173946312E0,-4.286699295E-1,1.186687851E1,7.350491524E0,1.396553934E1
2.181972291E0,3.124254227E0,1.591577339E1,1.076438141E1,1.946650236E1
2.189998269E0,6.357089043E0,1.928703117E1,1.384955215E1,2.458072919E1
2.198054765E0,8.141470909E0,2.144428635E1,1.651114464E1,2.826232232E1
2.206080744E0,7.748686790E0,2.254435349E1,1.863592339E1,3.025867911E1
2.214106722E0,5.781625748E0,2.300702286E1,1.897247505E1,3.037606141E1
2.222132700E0,3.927937031E0,2.379332542E1,1.908578300E1,3.075415642E1
2.230158679E0,3.855009079E0,2.356340027E1,1.992511559E1,3.109831440E1
2.238215174E0,5.804494381E0,2.387401009E1,2.322938919E1,3.381220245E1
2.246241152E0,1.013253307E1,2.444411659E1,3.091041565E1,4.068951779E1
2.254267131E0,1.713747978E1,2.289033890E1,4.061414337E1,4.967060972E1
2.262293110E0,2.459764290E1,1.900458717E1,5.022578049E1,5.906646591E1
2.270319088E0,3.097377014E1,1.331770515E1,5.727367401E1,6.646058563E1
2.278375583E0,3.556288528E1,8.213113785E0,6.039363861E1,7.056603739E1
2.286401562E0,3.787379456E1,2.741158247E0,5.867950439E1,6.989436672E1
2.294427540E0,3.954127502E1,-1.284092665E0,5.220780563E1,6.550432271E1
2.302453519E0,3.926866913E1,-3.782443523E0,4.288182449E1,5.826822570E1
2.310510015E0,3.650988007E1,-6.282313824E0,3.271399307E1,4.942311354E1
2.318535993E0,3.222358704E1,-8.509061813E0,2.324439430E1,4.063330605E1
2.326561971E0,2.838829422E1,-1.086888123E1,1.625763702E1,3.447228727E1
2.334587950E0,2.443634033E1,-1.247663307E1,9.743600845E0,2.911595540E1
2.342613928E0,2.106275558E1,-1.290544128E1,4.883005619E0,2.518002842E1
2.350670424E0,1.836864662E1,-1.242816353E1,1.207757473E0,2.221092311E1
2.358696403E0,1.602287865E1,-1.170464325E1,-1.581752300E0,1.990560861E1
2.366722381E0,1.378036499E1,-1.072162437E1,-3.487216949E0,1.780484121E1
2.374748359E0,1.120020390E1,-9.681713104E0,-5.620717525E0,1.583580126E1
2.382804855E0,9.167091370E0,-8.881367683E0,-7.745484352E0,1.493006309E1
2.390830834E0,7.229735374E0,-8.085906982E0,-9.410472870E0,1.435994307E1
2.398856812E0,5.512292385E0,-6.996785641E0,-1.062654781E1,1.386592568E1
2.406882791E0,3.987935066E0,-6.217563629E0,-1.152776527E1,1.369127809E1
2.414939285E0,2.178210258E0,-5.803651810E0,-1.225760651E1,1.373593432E1
2.422965264E0,4.187831879E-1,-5.931714058E0,-1.207335949E1,1.345832903E1
2.430991242E0,-1.081900120E0,-6.615453720E0,-1.081494141E1,1.272390244E1
2.439017221E0,-2.192541599E0,-7.659327984E0,-9.132464409E0,1.211917695E1
2.447073717E0,-3.002311707E0,-8.518913269E0,-7.498381615E0,1.173931368E1
2.455099695E0,-3.890777826E0,-9.334026337E0,-5.593481541E0,1.155635044E1
2.463125673E0,-5.232676506E0,-9.865739822E0,-2.265408993E0,1.139499028E1
2.471151652E0,-5.797401905E0,-1.016464043E1,-1.313166142E0,1.177515134E1
2.479208148E0,-5.710960865E0,-1.089586449E1,-5.636047125E-1,1.231473050E1
2.487234126E0,-5.733317375E0,-1.130146313E1,-1.205286980E-1,1.267314184E1
2.495260105E0,-5.709663391E0,-1.140814400E1,-1.917754412E-1,1.275863564E1
2.503316601E0,-6.008775234E0,-1.119464302E1,-4.393351078E-1,1.271292364E1
2.511342579E0,-6.554224014E0,-1.109331226E1,-8.441554308E-1,1.291247566E1
2.519368557E0,-7.247362614E0,-1.118955326E1,-1.437158465E0,1.340879530E1
2.527394536E0,-7.857987404E0,-1.125038910E1,-1.800997496E0,1.384062184E1
2.535451031E0,-8.111830711E0,-1.139376068E1,-2.290332556E0,1.417269216E1
2.543477009E0,-8.628484726E0,-1.159909916E1,-2.554976702E0,1.468052301E1
2.551502988E0,-9.240859985E0,-1.177745438E1,-2.581886053E0,1.519105199E1
2.559528966E0,-9.669880867E0,-1.193668938E1,-2.461386919E0,1.555794250E1
2.567554945E0,-1.001534462E1,-1.210632133E1,-2.084707022E0,1.584979960E1
2.575611440E0,-1.029587364E1,-1.218509483E1,-1.410488605E0,1.601471287E1
2.583637419E0,-1.029786110E1,-1.201776695E1,-5.942873955E-1,1.583748223E1
2.591663397E0,-1.030913353E1,-1.168641663E1,5.054844618E-1,1.559185949E1
2.599689376E0,-1.025202751E1,-1.150217342E1,1.778579950E0,1.551023559E1
2.607715354E0,-9.995814323E0,-1.138460350E1,2.820073605E0,1.541033147E1
2.615771850E0,-9.840344429E0,-1.125909996E1,4.101514816E0,1.550555172E1
2.623797828E0,-9.956366539E0,-1.127759266E1,5.038997173E0,1.586520795E1
2.631823807E0,-1.059247971E1,-1.137694359E1,5.355681419E0,1.644137449E1
2.639880303E0,-1.150284767E1,-1.133096409E1,5.149222374E0,1.694758811E1
2.647906281E0,-1.233621597E1,-1.109471798E1,4.547017097E0,1.720320773E1
2.655932259E0,-1.298379707E1,-1.064024544E1,3.820631027E0,1.721601089E1
2.663958238E0,-1.308710861E1,-9.836763382E0,3.271126986E0,1.669534658E1
2.671984216E0,-1.316418457E1,-9.007339478E0,2.776258707E0,1.619060012E1
2.680040711E0,-1.336614227E1,-8.126038551E0,2.442049503E0,1.583192558E1
2.688066691E0,-1.367364311E1,-7.479969978E0,2.440793991E0,1.577580242E1
2.696092669E0,-1.438004494E1,-7.082174778E0,2.870379925E0,1.628440889E1
2.704118648E0,-1.532727242E1,-7.003204346E0,3.904313564E0,1.729779799E1
2.712144626E0,-1.612914467E1,-7.052783966E0,5.361604691E0,1.840211603E1
2.720201121E0,-1.645537949E1,-7.086958885E0,6.942240238E0,1.921455698E1
2.728227099E0,-1.644752693E1,-7.023623466E0,8.097034454E0,1.963197381E1
2.736253078E0,-1.604434776E1,-6.486505508E0,9.082948685E0,1.954471298E1
2.744279056E0,-1.521019459E1,-5.676743031E0,9.248058319E0,1.868427182E1
2.752335552E0,-1.443223095E1,-4.890143394E0,8.501131058E0,1.744912668E1
2.760361530E0,-1.401223946E1,-4.004590034E0,7.031212807E0,1.618077716E1
2.768387509E0,-1.367570782E1,-3.354847431E0,5.219812393E0,1.501753731E1
2.776413487E0,-1.335434246E1,-2.645787954E0,2.919004679E0,1.392333454E1
2.784439466E0,-1.306382179E1,-2.177483082E0,8.182786107E-1,1.326930489E1
2.792495962E0,-1.262741661E1,-1.627556324E0,-8.875656724E-1,1.276277253E1
2.800521940E0,-1.154629707E1,-9.704203606E-1,-2.140789986E0,1.178310967E1
2.808547918E0,-1.039471626E1,-3.841042519E-1,-2.541625023E0,1.070782518E1
2.816573897E0,-8.759384155E0,6.453347206E-1,-1.795229435E0,8.964715077E0
2.824599875E0,-5.562462807E0,2.056937695E0,1.085312366E-1,5.931590359E0
2.832656371E0,-1.530113220E0,4.150947571E0,2.543670416E0,5.103123689E0
2.840682350E0,1.389055252E0,6.982017040E0,4.682847977E0,8.520980085E0
2.848708328E0,2.781471729E0,9.244927406E0,5.694944382E0,1.120882060E1
2.856734306E0,4.453467369E0,1.150776100E1,6.192658424E0,1.380619257E1
2.864790801E0,6.252699852E0,1.346052170E1,6.000724792E0,1.600907861E1
2.872816780E0,9.183706284E0,1.540780258E1,6.427658558E0,1.905401889E1
2.880842759E0,1.275207615E1,1.768961716E1,7.353075981E0,2.301316423E1
2.888868738E0,1.710744476E1,1.902778435E1,8.692170143E0,2.702360200E1
2.896925233E0,2.360783005E1,1.920504379E1,1.377826595E1,3.340664544E1
2.904951211E0,2.949519730E1,1.711912918E1,2.356935883E1,4.145534854E1
2.912977189E0,3.327983856E1,1.272660828E1,3.711530304E1,5.144958632E1
2.921003168E0,3.457737732E1,7.422271729E0,4.968520737E1,6.098610474E1
2.929059664E0,3.267695618E1,3.766292810E0,5.478792572E1,6.390371845E1
2.937085642E0,2.883489227E1,1.466260433E0,5.427100372E1,6.147310613E1
2.945111621E0,2.601264763E1,8.441503048E-1,4.840715027E1,5.496019126E1
2.953137599E0,2.394250488E1,7.123341560E-1,4.002574921E1,4.664559529E1
2.961194095E0,2.265914726E1,7.503988743E-1,3.088182259E1,3.831040354E1
2.969220073E0,2.219964981E1,8.687028885E-1,2.318056107E1,3.210790413E1
2.977246052E0,2.181056595E1,1.049579144E0,1.509873772E1,2.654758528E1
2.985272030E0,2.058318329E1,1.377526045E0,8.286130905E0,2.223117131E1
2.993328526E0,1.895343399E1,1.940353394E0,2.908635616E0,1.927324032E1
3.001354504E0,1.685253525E1,2.839805603E0,-1.223877430E0,1.713389378E1
3.009380483E0,1.410311890E1,3.727605343E0,-4.292160511E0,1.520577673E1
3.017406461E0,1.178285408E1,4.880778313E0,-6.310538292E0,1.422956573E1
3.025462956E0,1.040897751E1,5.419877529E0,-8.461956978E0,1.446812362E1
3.033488935E0,9.052219391E0,5.277492046E0,-9.716564178E0,1.429007409E1
3.041514913E0,7.185906410E0,4.919066429E0,-1.008119011E1,1.332159373E1
3.049540891E0,4.987479210E0,4.790165901E0,-9.635136604E0,1.185986912E1
3.057597387E0,3.209713459E0,4.547164917E0,-8.839432716E0,1.044579054E1
3.065623366E0,1.358766556E0,3.593820095E0,-7.645507336E0,8.556609834E0
3.073649344E0,-9.431600571E-2,2.093681812E0,-6.279650211E0,6.620151495E0
3.081675323E0,-1.442489147E0,4.166278839E-1,-4.761399746E0,4.992522536E0
3.089731819E0,-2.745982170E0,-1.222425461E0,-3.243069887E0,4.421791987E0
3.097757797E0,-3.718006611E0,-2.530887604E0,-2.139278650E0,4.980509850E0
3.105783775E0,-4.687081337E0,-3.813648701E0,-1.106910229E0,6.143117948E0
3.113809754E0,-5.627995491E0,-4.812772751E0,-1.401863098E-1,7.406535425E0
3.121835732E0,-6.598495483E0,-5.560170174E0,6.878876686E-1,8.656143740E0
3.129892228E0,-7.486986637E0,-6.099571705E0,1.165089607E0,9.727136150E0
3.137918207E0,-8.164225578E0,-6.473036766E0,1.320100784E0,1.050225930E1
3.145944185E0,-8.769430161E0,-6.713999748E0,1.026213646E0,1.109206078E1
3.153970163E0,-9.239925385E0,-6.961179733E0,2.627711296E-1,1.157165905E1
3.162026658E0,-9.799034119E0,-7.131063938E0,-7.807173729E-1,1.214424399E1
3.170052637E0,-1.043922234E1,-7.286320686E0,-1.799986124E0,1.285720740E1
3.178078615E0,-1.101852608E1,-7.356522560E0,-2.442437172E0,1.347189075E1
3.186135111E0,-1.165079880E1,-7.461375237E0,-2.973580122E0,1.415116291E1
3.193963257E0,-1.223579216E1,-7.561882019E0,-3.134212255E0,1.472141148E1
3.201989235E0,-1.249731636E1,-7.649361610E0,-2.951774836E0,1.494686000E1
3.210015214E0,-1.253691769E1,-7.630248070E0,-2.494518280E0,1.488682680E1
3.218071710E0,-1.230489540E1,-7.624482155E0,-1.868273735E0,1.459567147E1
3.226097688E0,-1.244069576E1,-7.497861385E0,-9.225058556E-1,1.455471929E1
3.234123666E0,-1.237382126E1,-7.293182373E0,5.980849266E-3,1.436321682E1
3.242149645E0,-1.213929176E1,-7.217885971E0,9.750206470E-1,1.415665736E1
3.250175623E0,-1.202028847E1,-7.325985909E0,1.537007689E0,1.416050130E1
3.258201602E0,-1.210715485E1,-7.398684502E0,1.753771901E0,1.429683345E1
3.266258098E0,-1.239234734E1,-7.227335930E0,1.759227991E0,1.445335740E1
3.274284076E0,-1.323243523E1,-6.723737717E0,1.983356237E0,1.497463498E1
3.282310054E0,-1.442969036E1,-6.138783932E0,2.444776773E0,1.587065108E1
3.290336033E0,-1.529447460E1,-5.714337349E0,3.181740046E0,1.663424403E1
3.298362011E0,-1.562041950E1,-5.387256622E0,3.906707764E0,1.697888114E1
3.306418507E0,-1.552403450E1,-5.271110535E0,4.346133232E0,1.696081152E1
3.314444486E0,-1.480622292E1,-5.379912376E0,4.641695976E0,1.642294236E1
3.322470464E0,-1.425467873E1,-5.514705181E0,5.090107918E0,1.610953250E1
3.330496442E0,-1.397041702E1,-5.729945183E0,5.530496597E0,1.608077163E1
3.338522421E0,-1.376362038E1,-6.082025528E0,6.073487282E0,1.622699997E1
3.346578916E0,-1.337080002E1,-6.674308300E0,6.867316723E0,1.644641977E1
3.354604894E0,-1.296971989E1,-7.318511009E0,7.853965759E0,1.683624113E1
3.362630873E0,-1.261510563E1,-7.927979469E0,9.132832527E0,1.747576546E1
3.370656851E0,-1.230596066E1,-8.531146049E0,1.012853527E1,1.807773070E1
3.378682831E0,-1.234208584E1,-9.059502602E0,1.042144966E1,1.852048280E1
3.386708809E0,-1.270601177E1,-9.587146759E0,1.012273312E1,1.886334657E1
3.394765304E0,-1.286488914E1,-9.675765991E0,9.017055511E0,1.845082953E1
3.402791282E0,-1.239111137E1,-8.980586052E0,7.053207874E0,1.685046908E1
3.410817261E0,-1.193156052E1,-7.762241364E0,4.725662708E0,1.499821374E1
3.418843239E0,-1.162383080E1,-6.589148045E0,2.525624752E0,1.359812835E1
3.426869218E0,-1.142787933E1,-5.243061543E0,-1.054536104E-1,1.257367253E1
3.434925713E0,-1.133942986E1,-4.194453716E0,-2.649906158E0,1.237732257E1
3.442951692E0,-1.114112186E1,-3.476951361E0,-4.874799252E0,1.264821944E1
3.450977670E0,-1.049479485E1,-2.791241169E0,-6.623072624E0,1.271993857E1
3.459003649E0,-1.034430122E1,-2.012114525E0,-7.441340446E0,1.290064806E1
3.467029627E0,-9.729162216E0,-5.020482540E-1,-7.421873569E0,1.224715711E1
3.475055606E0,-8.407192230E0,1.497522354E0,-6.758522511E0,1.089041234E1
3.483112101E0,-6.316853523E0,3.504711390E0,-5.379452705E0,9.006894680E0
3.491138080E0,-2.852720261E0,5.901293278E0,-3.172680855E0,7.282113638E0
3.499164058E0,1.054585457E0,8.181780815E0,-7.069826126E-1,8.279704838E0
3.507190037E0,6.334939957E0,1.028788471E1,2.164821148E0,1.227430188E1
3.515246533E0,1.144669151E1,1.112166691E1,4.753832340E0,1.665284190E1
3.523272511E0,1.540109921E1,1.081180763E1,6.579885960E0,1.993449122E1
3.531298489E0,1.727336121E1,1.056925392E1,7.660860538E0,2.165102584E1
3.539324468E0,1.715505600E1,1.134209442E1,7.777455330E0,2.198699306E1
3.547380963E0,1.660571480E1,1.269717216E1,7.492713928E0,2.220605113E1
3.555406941E0,1.743621063E1,1.355310059E1,8.359683990E0,2.361339224E1
3.563432921E0,2.062166977E1,1.297463512E1,1.173674202E1,2.704340093E1
3.571458899E0,2.527225685E1,1.162166309E1,1.787328529E1,3.306364086E1
3.579515394E0,3.013892937E1,1.018502426E1,2.526567078E1,4.062565572E1
3.587541372E0,3.552969742E1,7.509096622E0,3.530601883E1,5.064840468E1
3.595567351E0,3.769666672E1,4.267829895E0,4.309186935E1,5.741221349E1
3.603593329E0,3.609595871E1,1.235579252E0,4.588257980E1,5.839225994E1
3.611619308E0,3.231082153E1,-1.078784347E0,4.325242233E1,5.399930556E1
3.619675804E0,2.809007454E1,-2.215952396E0,3.760407257E1,4.698966915E1
3.627701782E0,2.359119034E1,-2.546769381E0,2.917698479E1,3.760753564E1
3.635727760E0,2.029461288E1,-2.590521336E0,2.068057632E1,2.909069181E1
3.643753739E0,1.807838631E1,-2.768495083E0,1.324638081E1,2.258227670E1
3.651810235E0,1.640244865E1,-2.762575626E0,7.172678471E0,1.811406808E1
3.659836213E0,1.490475464E1,-2.474271536E0,3.069527626E0,1.541738403E1
3.667862192E0,1.301324844E1,-1.578537941E0,-6.634154320E-1,1.312541569E1
3.675888170E0,1.115678024E1,-3.614776134E-1,-3.284041405E0,1.163569248E1
3.683914148E0,9.395263672E0,8.928070068E-1,-5.051440239E0,1.070444451E1
3.691970644E0,7.639782429E0,1.997254372E0,-6.282711506E0,1.009097441E1
3.699996623E0,6.216426373E0,2.711500168E0,-7.119300365E0,9.832630762E0
3.708022601E0,4.718082905E0,3.267262936E0,-7.852581024E0,9.726167906E0
3.716048580E0,3.272050381E0,3.433004379E0,-8.400699615E0,9.646947019E0
3.724105074E0,1.894318581E0,3.040323257E0,-8.470231056E0,9.196565801E0
3.732131053E0,5.759239197E-1,2.209043980E0,-8.018176079E0,8.336828611E0
3.740157031E0,-5.266327858E-1,1.397304058E0,-7.224040508E0,7.376758230E0
3.748183010E0,-1.840743065E0,3.872504234E-1,-6.082901478E0,6.367102034E0
3.756208989E0,-3.119005919E0,-5.848379135E-1,-4.868942261E0,5.811783895E0
3.764265484E0,-4.126948357E0,-1.568135023E0,-3.654290676E0,5.731020026E0
3.772291463E0,-5.006922722E0,-2.452294827E0,-2.436757326E0,6.084472970E0
3.780317441E0,-5.657124043E0,-3.056909561E0,-1.465670109E0,6.595144984E0
3.788343419E0,-6.279911518E0,-3.579647064E0,-5.445022583E-1,7.248975410E0
3.796399915E0,-6.785569191E0,-3.918324232E0,4.442834854E-2,7.835763390E0
3.804425894E0,-7.229719639E0,-4.099420547E0,2.306194305E-1,8.314281701E0
3.812451872E0,-7.602447987E0,-4.172227859E0,1.830101013E-2,8.672083696E0
3.820477851E0,-7.901996136E0,-4.250000954E0,-4.397130013E-1,8.983173079E0
3.828503829E0,-8.283114433E0,-4.261249542E0,-1.179443598E0,9.389319442E0
3.836560325E0,-8.791992188E0,-4.208895683E0,-1.923033953E0,9.935390736E0
3.844586303E0,-9.278518677E0,-4.096378326E0,-2.591584444E0,1.046840648E1
3.852612282E0,-9.741171837E0,-4.080276012E0,-2.953652382E0,1.096645537E1
3.860638260E0,-1.010729218E1,-4.110598087E0,-2.909198284E0,1.129237824E1
3.868664239E0,-1.030729961E1,-4.124461651E0,-2.428318501E0,1.136434512E1
3.876720734E0,-1.038636494E1,-4.156638145E0,-1.436046720E0,1.127902688E1
3.884746713E0,-1.028696442E1,-4.169498920E0,-1.854655743E-1,1.110138530E1
3.892772691E0,-1.017537880E1,-4.218919277E0,1.024662018E0,1.106289048E1
3.900798670E0,-1.017710781E1,-4.308283806E0,2.024066448E0,1.123528717E1
3.908824648E0,-1.029245758E1,-4.494725704E0,3.000946999E0,1.162509893E1
3.916881143E0,-1.045070648E1,-4.664492130E0,3.776198626E0,1.205132478E1
3.924907121E0,-1.064255142E1,-4.788794518E0,4.216563702E0,1.240870111E1
3.932933100E0,-1.087517071E1,-4.850114346E0,4.399115562E0,1.269429655E1
3.940959078E0,-1.106715679E1,-4.831408501E0,4.375114441E0,1.284391272E1
3.948985058E0,-1.125763893E1,-4.809718609E0,4.097774506E0,1.290967015E1
3.957041553E0,-1.162773991E1,-4.656251907E0,3.628851175E0,1.304045927E1
3.965067531E0,-1.232062912E1,-4.355504990E0,3.356695652E0,1.349206179E1
3.973093509E0,-1.299171925E1,-4.023766518E0,3.178152561E0,1.396696530E1
3.981119488E0,-1.371322250E1,-3.794764519E0,2.986571312E0,1.453864909E1
3.989175984E0,-1.427927017E1,-3.640283585E0,2.964133739E0,1.503114467E1
3.997201962E0,-1.452215672E1,-3.624799728E0,2.973761559E0,1.526025775E1
4.005227941E0,-1.443729019E1,-3.882428885E0,3.258111715E0,1.530110761E1
4.013253919E0,-1.414301109E1,-4.395754814E0,3.752620935E0,1.527840263E1
4.021310415E0,-1.370533371E1,-4.972783566E0,4.404370308E0,1.523033901E1
4.029336393E0,-1.327932835E1,-5.464075089E0,4.926044941E0,1.518099459E1
4.037362372E0,-1.296383667E1,-6.039760590E0,5.337266922E0,1.526519529E1
4.045388350E0,-1.278788757E1,-6.609353065E0,5.582347870E0,1.543943730E1
4.053414329E0,-1.280848408E1,-7.080185890E0,5.469159603E0,1.562363605E1
4.061470825E0,-1.309324837E1,-7.329139709E0,4.754761219E0,1.574030482E1
4.069496803E0,-1.332750511E1,-7.354671478E0,3.647500992E0,1.565304598E1
4.077522781E0,-1.369319725E1,-7.106235504E0,2.135993719E0,1.557448886E1
4.085548760E0,-1.409315491E1,-6.812343121E0,4.928188324E-1,1.566103140E1
4.093574738E0,-1.451456833E1,-6.547196865E0,-1.197878599E0,1.596788633E1
4.101631233E0,-1.491137695E1,-6.127164841E0,-2.909660578E0,1.638161885E1
4.109657212E0,-1.490409851E1,-5.529863358E0,-4.345561028E0,1.648015297E1
4.117683190E0,-1.438242722E1,-4.272930145E0,-5.784543037E0,1.608020780E1
4.125709168E0,-1.492921162E1,-2.657932520E0,-7.098813534E0,1.674333056E1
4.133735148E0,-1.535341644E1,-6.497159004E-1,-8.199434280E0,1.741781415E1
4.141791643E0,-1.500829697E1,1.218178749E0,-8.268492699E0,1.717850136E1
4.149817621E0,-1.376938057E1,2.654876709E0,-6.889122963E0,1.562383521E1
4.157843600E0,-1.055106163E1,4.293196678E0,-3.779645920E0,1.200175664E1
4.165869578E0,-4.017023087E0,5.984444141E0,6.879606247E-1,7.240396120E0
4.173895556E0,4.775063992E0,7.782340527E0,6.273285866E0,1.107791387E1
4.181952052E0,1.390578270E1,8.342788696E0,1.141462708E1,1.983095124E1
4.189978031E0,2.047735023E1,8.331874847E0,1.430395699E1,2.633144881E1
4.198004009E0,2.686915398E1,8.762807846E0,1.519329071E1,3.208698053E1
4.206029988E0,3.109899712E1,7.652292252E0,1.475934219E1,3.526391045E1
4.214055966E0,3.290207672E1,4.682273388E0,1.532294464E1,3.659594198E1
4.222112462E0,3.382759476E1,1.822103977E0,1.930046463E1,3.898889797E1
4.230138440E0,3.413935089E1,2.975997925E-1,2.635115051E1,4.312733447E1
4.238164419E0,3.423405838E1,-8.297107220E-1,3.561756897E1,4.940921364E1
4.246190397E0,3.300389481E1,-9.956625700E-1,4.046401978E1,5.222628948E1
4.254246893E0,2.959283066E1,-1.017616987E0,3.991759109E1,4.970095824E1
4.262272872E0,2.540585709E1,-7.455074191E-1,3.620027924E1,4.423204237E1
4.270298850E0,2.150151443E1,-6.541811228E-1,3.084188652E1,3.760272650E1
4.278324828E0,1.628346634E1,-6.728738546E-2,2.332825661E1,2.844931212E1
4.286381323E0,1.179683685E1,4.701957107E-1,1.497014332E1,1.906545658E1
4.294407302E0,8.125342369E0,8.167496920E-1,7.320655823E0,1.096723622E1
4.302433280E0,5.174382687E0,9.965532422E-1,1.030899048E0,5.369367505E0
4.310459259E0,3.079402924E0,1.247053385E0,-3.120812893E0,4.558216496E0
4.318485237E0,1.064066410E0,1.356204033E0,-6.713864326E0,6.931630465E0
4.326541733E0,-5.128674507E-1,1.127690434E0,-9.267138481E0,9.349576160E0
4.334567711E0,-2.332720995E0,7.760618925E-1,-1.094744968E1,1.122009420E1
4.342593690E0,-2.671264648E0,1.760729551E-1,-1.233896446E1,1.262603265E1
4.350619668E0,-2.914043188E0,-3.300702572E-1,-1.317924118E1,1.350159221E1
4.358645647E0,-2.993980169E0,-4.688178301E-1,-1.377372456E1,1.410316261E1
4.366702142E0,-3.121572733E0,-4.228804111E-1,-1.401247025E1,1.436218530E1
4.374728121E0,-3.327704668E0,-4.813854694E-1,-1.398913574E1,1.438753868E1
4.382754099E0,-3.611396790E0,-6.274187565E-1,-1.376107597E1,1.424089369E1
4.390780078E0,-3.919513702E0,-9.217526913E-1,-1.342264843E1,1.401355439E1
4.398806056E0,-4.372996807E0,-1.276615858E0,-1.292180157E1,1.370130668E1
4.406832035E0,-4.914487839E0,-1.486986637E0,-1.211521816E1,1.315833694E1
4.414888531E0,-5.472388268E0,-1.651262760E0,-1.112739468E1,1.250970081E1
4.422914509E0,-6.041963577E0,-1.773786783E0,-9.831146240E0,1.167489100E1
4.430940487E0,-6.642501831E0,-1.852041245E0,-8.432565689E0,1.089316535E1
4.438966466E0,-7.253756523E0,-1.917780161E0,-7.891160011E0,1.088876810E1
4.447022962E0,-7.742064476E0,-2.198586941E0,-8.000589371E0,1.134824996E1
4.455048940E0,-8.251900673E0,-2.387891293E0,-8.388134003E0,1.200652662E1
4.463074919E0,-8.799707413E0,-2.225656748E0,-8.883491516E0,1.270058345E1
4.471100897E0,-9.334119797E0,-1.852961779E0,-9.286801338E0,1.329676422E1
4.479157392E0,-9.908220291E0,-1.268407822E0,-9.778678894E0,1.397870697E1
4.487183370E0,-1.002881527E1,-4.898672104E-1,-1.053493309E1,1.455341612E1
4.495209349E0,-1.059309578E1,6.373705864E-1,-1.124069691E1,1.545875760E1
4.503235327E0,-1.093527508E1,2.392414093E0,-1.157703972E1,1.610378014E1
4.511291823E0,-1.086490059E1,4.095715523E0,-1.082956886E1,1.587767339E1
4.519317801E0,-9.594236374E0,6.115851879E0,-8.022941589E0,1.392194697E1
4.527343780E0,-6.833757401E0,7.595038891E0,-3.663407803E0,1.085382019E1
4.535369758E0,-3.195852041E0,8.208612442E0,3.130153656E0,9.348403629E0
4.543395737E0,9.915966988E-1,8.044605255E0,1.191449547E1,1.441020957E1
4.551452233E0,5.206590652E0,7.209335804E0,2.047887993E1,2.232638869E1
4.559478211E0,1.030565262E1,5.289836884E0,2.982688332E1,3.199737206E1
4.567504189E0,1.386896992E1,2.707391739E0,3.514913177E1,3.788323852E1
4.575530168E0,1.447993374E1,6.701593399E-1,3.594158173E1,3.875454672E1
4.583586664E0,1.250431442E1,2.567124367E-1,3.332053757E1,3.559047631E1
4.591612642E0,9.705223083E0,9.278197289E-1,2.971581078E1,3.127429639E1
4.599638621E0,6.604818344E0,1.261897564E0,2.503635216E1,2.592363671E1
4.607664599E0,4.673607349E0,6.374678612E-1,2.026858902E1,2.081020595E1
4.615690578E0,3.711355209E0,-5.102930069E-1,1.559267807E1,1.603640127E1
4.623747072E0,3.266072750E0,-1.600734711E0,1.079897499E1,1.139506225E1
4.631773052E0,2.867897987E0,-2.220266342E0,6.727809906E0,7.643156915E0
4.639799030E0,2.114549160E0,-2.708647728E0,2.456644058E0,4.224120109E0
4.647825009E0,1.332211494E0,-2.904685974E0,-1.049908161E0,3.363672877E0
4.655881504E0,6.675524712E-1,-3.089578629E0,-3.750972748E0,4.905193060E0
4.663907482E0,8.990859985E-2,-3.368644714E0,-6.067908287E0,6.940847336E0
4.671933460E0,-1.859242916E-1,-3.677232504E0,-7.913512230E0,8.728131675E0
4.679959439E0,-5.532937050E-1,-4.032040119E0,-9.904240608E0,1.070782254E1
4.687985417E0,-1.101928711E0,-4.292392731E0,-1.167914772E1,1.249165216E1
4.696041913E0,-2.041624546E0,-4.297758579E0,-1.311908722E1,1.395526456E1
4.704067892E0,-2.245934486E0,-4.608004093E0,-1.413803291E1,1.503868006E1
4.712093870E0,-2.532171011E0,-4.749517918E0,-1.442629623E1,1.539765675E1
4.720119848E0,-2.798724890E0,-4.586958885E0,-1.407715511E1,1.506782496E1
4.728145827E0,-2.970746517E0,-4.299292088E0,-1.312236500E1,1.412464904E1
4.736202323E0,-2.839132309E0,-4.168368816E0,-1.216605568E1,1.316999930E1
4.744228301E0,-2.554235220E0,-4.135664463E0,-1.120088482E1,1.221014573E1
4.752254280E0,-2.320043564E0,-4.100320816E0,-1.033868027E1,1.136149385E1
4.760280258E0,-2.012846947E0,-3.945291758E0,-9.200572968E0,1.021114209E1
4.768336754E0,-1.753092527E0,-3.738228083E0,-8.117266655E0,9.107013811E0
4.776362732E0,-1.553146601E0,-3.478991985E0,-7.040614605E0,8.005367175E0
4.784388711E0,-1.389853716E0,-3.211084127E0,-5.989207745E0,6.936379750E0
4.792414689E0,-1.339259863E0,-2.875817299E0,-5.114262581E0,6.018274160E0
4.800471184E0,-1.220816851E0,-2.399443626E0,-4.251770973E0,5.032422867E0
4.808497163E0,-8.340959549E-1,-1.873440266E0,-3.597215652E0,4.140707058E0
4.816523141E0,-1.791913509E-1,-1.235747814E0,-2.951048374E0,3.204351527E0
4.824549120E0,8.078103065E-1,-5.735044479E-1,-2.031826496E0,2.260483080E0
4.832575099E0,1.919611216E0,-1.680908203E-1,-6.146688461E-1,2.022617001E0
4.840631594E0,2.906651020E0,-1.345949173E-1,1.048327923E0,3.092851011E0
4.848657572E0,3.903620243E0,-6.405973434E-1,3.149748325E0,5.056632325E0
4.856683551E0,4.472589016E0,-1.325336933E0,4.995028496E0,6.834535841E0
4.864709529E0,4.531391144E0,-1.796654701E0,6.288718700E0,7.956723993E0
4.872766025E0,4.229293346E0,-1.871179819E0,6.866510391E0,8.278719773E0
4.880792003E0,3.749941349E0,-1.865831614E0,6.643526077E0,7.853650519E0
4.888817982E0,3.065920830E0,-1.697065115E0,5.871657372E0,6.837854987E0
4.896843960E0,2.469310284E0,-1.471110106E0,4.746584892E0,5.549029317E0
4.904869939E0,2.172139883E0,-1.119643211E0,3.777665615E0,4.499172156E0
4.912926434E0,2.092808247E0,-8.682191372E-1,2.988730431E0,3.750488023E0
4.920952413E0,2.102644682E0,-5.947306156E-1,2.329163074E0,3.193715672E0
4.928978391E0,1.960412025E0,-4.411249161E-1,1.740445137E0,2.658374649E0
4.937004370E0,1.629722834E0,-3.943622112E-1,1.185729980E0,2.053648864E0
4.945060866E0,1.199489355E0,-5.192143917E-1,4.942016602E-1,1.397352346E0
4.953086844E0,6.701831818E-1,-6.898241043E-1,-2.801971436E-1,1.001755075E0
4.961112822E0,2.362797260E-1,-7.813751698E-1,-9.660997391E-1,1.264801949E0
4.969138801E0,-2.954370975E-1,-7.567260265E-1,-1.727087975E0,1.908599023E0
4.977164779E0,-6.733422279E-1,-6.686186790E-1,-2.384832859E0,2.566684332E0
4.985221274E0,-8.588047028E-1,-5.149528980E-1,-2.971257210E0,3.135457130E0
4.993247253E0,-1.086920023E0,-4.127900600E-1,-3.551718712E0,3.737177622E0
5.001273231E0,-1.168048859E0,-2.149791718E-1,-3.955461025E0,4.129918414E0
5.009299210E0,-1.154719353E0,1.371788979E-1,-4.300275803E0,4.454724101E0
5.017355705E0,-9.760093689E-1,4.809579849E-1,-4.413424492E0,4.545572639E0
5.025381684E0,-5.927796364E-1,7.380604744E-1,-4.205832481E0,4.311049504E0
5.033407662E0,-2.181522846E-1,8.901629448E-1,-3.674133778E0,3.786718831E0
5.041433641E0,-7.545399666E-2,8.561954498E-1,-3.056149006E0,3.174714271E0
5.049490137E0,-1.405367851E-1,6.772384644E-1,-2.274223804E0,2.377077289E0
5.057516115E0,-3.264822960E-1,5.114433765E-1,-1.448454380E0,1.570409217E0
5.065542093E0,-4.974613190E-1,4.073097706E-1,-4.937849045E-1,8.106741300E-1
5.073568072E0,-5.578598976E-1,4.029641151E-1,4.187850952E-1,8.055859355E-1
5.081594050E0,-6.221342087E-1,4.825186729E-1,1.073008537E0,1.330872858E0
5.089650546E0,-6.520380974E-1,6.033625603E-1,1.499548912E0,1.742942053E0
5.097676525E0,-6.857337952E-1,7.963194847E-1,1.552128792E0,1.874422403E0
5.105702503E0,-6.115217209E-1,9.855773449E-1,1.224172592E0,1.686392615E0
5.113728481E0,-3.977205753E-1,1.228784323E0,7.560224533E-1,1.496550206E0
5.121784976E0,-3.462545872E-1,1.393162727E0,4.189176559E-1,1.495421889E0
5.129810956E0,-5.110218525E-1,1.515348911E0,1.366825104E-1,1.605025783E0
5.137836934E0,-7.298779488E-1,1.575475454E0,-6.062507629E-3,1.736341407E0
5.145862913E0,-9.835648537E-1,1.560267210E0,-6.724357605E-2,1.845631406E0
5.153919407E0,-1.278197050E0,1.405119896E0,-5.450248718E-2,1.900294751E0
5.161945386E0,-1.515325308E0,1.235651255E0,-1.283454895E-2,1.955302927E0
5.169971364E0,-1.847348213E0,9.957430363E-1,-5.348873138E-2,2.099300040E0
5.178027860E0,-2.077950954E0,8.546338081E-1,-2.359151840E-1,2.259189034E0
5.186053839E0,-2.386439323E0,8.440740108E-1,-5.257830620E-1,2.585343576E0
5.194079817E0,-2.612153053E0,9.625222683E-1,-7.835612297E-1,2.892016752E0
5.202105796E0,-2.684154987E0,1.165563345E0,-9.914741516E-1,3.089700131E0
5.210131774E0,-2.619561195E0,1.326223373E0,-1.190027714E0,3.168143818E0
5.218188270E0,-2.332015514E0,1.429713249E0,-1.240306377E0,3.003454052E0
5.226214248E0,-1.935650229E0,1.467648745E0,-1.004371643E0,2.628592217E0
5.234240227E0,-1.549693108E0,1.336022615E0,-6.578445435E-1,2.149247450E0
5.242266205E0,-1.261592388E0,1.133010626E0,-3.066082001E-1,1.723176433E0
5.250322701E0,-1.086343765E0,7.481718063E-1,1.421318054E-1,1.326689594E0
5.258348679E0,-1.089201927E0,3.521633148E-1,4.446926117E-1,1.228059997E0
5.266374658E0,-1.302081347E0,1.567273140E-1,6.327667236E-1,1.456150065E0
5.274400636E0,-1.558170319E0,9.133505821E-2,6.728858948E-1,1.699709464E0
5.282457131E0,-1.786917329E0,1.180875301E-1,6.470279694E-1,1.904117485E0
5.290483110E0,-1.905293465E0,9.800457954E-2,7.768392563E-1,2.059909540E0
5.298509088E0,-1.678161263E0,9.459567070E-2,1.069793701E0,1.992393568E0
5.306535066E0,-1.121498466E0,2.137136459E-2,1.573746681E0,1.932587426E0
5.314561045E0,-5.787785053E-1,-2.270731926E-1,2.246068001E0,2.330529609E0
5.322617541E0,-1.701335907E-1,-4.514830112E-1,2.809802055E0,2.850924401E0
5.330643519E0,4.982655048E-1,-7.629144192E-1,3.545755386E0,3.660968203E0
5.338669498E0,1.145981073E0,-1.116071463E0,4.226581573E0,4.519168057E0
5.346695476E0,1.692157269E0,-1.586941719E0,4.670709610E0,5.215103882E0
5.354751972E0,1.990966082E0,-2.031492472E0,4.961686134E0,5.719198973E0
5.362777950E0,2.067856073E0,-2.305997849E0,5.137136459E0,5.998652000E0
5.370803929E0,2.007241964E0,-2.546907425E0,5.200600624E0,6.128784919E0
5.378829907E0,1.676749468E0,-2.712424755E0,5.095616341E0,6.011159848E0
5.386886403E0,1.167591572E0,-2.708434820E0,4.778250694E0,5.615208718E0
5.394912382E0,5.008361340E-1,-2.566644192E0,4.148736000E0,4.904131894E0
5.402938360E0,-5.684328079E-2,-2.418637753E0,3.459900856E0,4.221842450E0
5.410994855E0,-6.136465073E-1,-2.246394873E0,2.526074409E0,3.435680992E0
5.419020833E0,-1.001190662E0,-2.064251423E0,1.578689575E0,2.784919649E0
5.427046812E0,-1.279358745E0,-1.905969739E0,8.184995651E-1,2.437092731E0
5.435072790E0,-1.263969898E0,-1.637401938E0,2.090177536E-1,2.079036660E0
5.443129286E0,-1.067235470E0,-1.405578256E0,-9.473609924E-2,1.767375656E0
5.451155264E0,-8.311622143E-1,-1.143597484E0,-2.307186127E-1,1.432437402E0
5.459181243E0,-6.603553295E-1,-1.015032768E0,-2.318105698E-1,1.232922067E0
5.467237739E0,-4.986515045E-1,-1.054149032E0,-1.899700165E-1,1.181512637E0
5.475263717E0,-4.352886677E-1,-1.228842974E0,-1.427049637E-1,1.311448049E0
5.483289696E0,-4.733006954E-1,-1.385992408E0,-8.891773224E-2,1.467274639E0
5.491346191E0,-5.668597221E-1,-1.587567449E0,-7.825946808E-2,1.687549968E0
5.499372170E0,-7.627840042E-1,-1.672937632E0,-1.502733231E-1,1.844760642E0
5.507398148E0,-9.984321594E-1,-1.656052351E0,-3.036575317E-1,1.957443246E0
5.515454643E0,-1.204590797E0,-1.550699353E0,-5.433044434E-1,2.037372620E0
5.523480622E0,-1.333307624E0,-1.476664662E0,-8.127040863E-1,2.149124398E0
5.531506600E0,-1.400632858E0,-1.417192698E0,-1.065784931E0,2.259669238E0
5.539532579E0,-1.367667198E0,-1.292848587E0,-1.373863697E0,2.330122849E0
5.547589074E0,-1.255384564E0,-1.091060638E0,-1.597592831E0,2.306232116E0
5.555615053E0,-1.134021044E0,-8.614439964E-1,-1.712062359E0,2.226936687E0
5.563641031E0,-1.019041777E0,-6.399580240E-1,-1.735989571E0,2.112262343E0
5.571667010E0,-9.298117161E-1,-5.623366833E-1,-1.656854153E0,1.981398005E0
5.579723506E0,-7.733118534E-1,-5.262436867E-1,-1.467995167E0,1.740676147E0
5.587749484E0,-7.299308777E-1,-6.092413664E-1,-1.246315479E0,1.567570223E0
5.595775462E0,-7.890644073E-1,-7.384884357E-1,-1.083694935E0,1.530484407E0
5.603801441E0,-9.021244049E-1,-9.908647537E-1,-1.065040112E0,1.711710209E0
5.611827419E0,-1.076807499E0,-1.183821201E0,-1.078729630E0,1.929923480E0
5.619883915E0,-1.281042576E0,-1.399468184E0,-1.189324856E0,2.239213007E0
5.627909894E0,-1.508666277E0,-1.554720998E0,-1.267592430E0,2.509984439E0
5.635935872E0,-1.692474127E0,-1.643370152E0,-1.372897625E0,2.729465518E0
5.643961850E0,-1.801429629E0,-1.654751778E0,-1.473412991E0,2.855573147E0
5.652018345E0,-1.767163754E0,-1.652732611E0,-1.488943100E0,2.841011153E0
5.660044324E0,-1.556735754E0,-1.637099981E0,-1.483887196E0,2.702858444E0
5.668070302E0,-1.232414246E0,-1.598452091E0,-1.462891579E0,2.492778717E0
5.676096282E0,-8.076207638E-1,-1.602037430E0,-1.442292213E0,2.301951792E0
5.684152776E0,-4.956843853E-1,-1.635748506E0,-1.447724342E0,2.239929007E0
5.692178755E0,-2.243692875E-1,-1.690388083E0,-1.452308178E0,2.239855463E0
5.700204733E0,7.073903084E-2,-1.842875838E0,-1.489323139E0,2.370501799E0
5.708230712E0,2.614219189E-1,-2.133231163E0,-1.663057327E0,2.717494487E0
5.716256690E0,3.791666031E-1,-2.489269018E0,-1.959231853E0,3.190425836E0
5.724313186E0,4.718053341E-1,-2.891384125E0,-2.259895325E0,3.699976934E0
5.732339165E0,5.293955803E-1,-3.187869072E0,-2.406211853E0,4.028973118E0
5.740365143E0,6.472620964E-1,-3.498821735E0,-2.589544773E0,4.400732199E0
5.748391121E0,8.678860664E-1,-3.817495346E0,-2.826294899E0,4.828502853E0
5.756447617E0,1.112599373E0,-4.128449917E0,-3.149795055E0,5.310667093E0
5.764473596E0,1.260821819E0,-4.457577705E0,-3.456052780E0,5.779616897E0
5.772499574E0,1.382419109E0,-4.756693840E0,-3.632009983E0,6.142370503E0
5.780525553E0,1.526166439E0,-5.049973011E0,-3.792119026E0,6.497043799E0
5.788582047E0,1.854491234E0,-5.346061707E0,-3.922878742E0,6.885382425E0
5.796608027E0,2.513670921E0,-5.704791546E0,-3.868918419E0,7.337010141E0
5.804634005E0,3.050235271E0,-6.272356987E0,-3.523088932E0,7.813997249E0
5.812659984E0,3.339960098E0,-6.905957699E0,-3.099103451E0,8.273574040E0
5.820685962E0,3.456114769E0,-7.692121506E0,-2.463189602E0,8.785258424E0
5.828742457E0,3.885374546E0,-8.716323853E0,-2.149366856E0,9.782137535E0
5.836768435E0,4.086586952E0,-9.788399696E0,-1.542958260E0,1.071884703E1
5.844794414E0,3.870237827E0,-1.039942551E1,-5.089964867E-1,1.110791921E1
5.852820392E0,3.534638882E0,-1.014405537E1,6.049365997E-1,1.075925088E1
5.860876888E0,3.502441883E0,-8.990368843E0,2.134272575E0,9.881748353E0
5.868902867E0,3.772150993E0,-7.631918907E0,3.694426060E0,9.280306742E0
5.876928845E0,4.126173019E0,-6.446430206E0,5.302424908E0,9.311147947E0
5.884954823E0,4.346304893E0,-5.445971966E0,6.955804825E0,9.845415057E0
5.893011319E0,4.328001022E0,-4.701636791E0,8.252486229E0,1.043745708E1
5.901037298E0,4.163571358E0,-4.015376091E0,9.456096649E0,1.108495988E1
5.909063276E0,3.723154068E0,-3.322963715E0,1.042625809E1,1.155901474E1
5.917119772E0,3.150406837E0,-2.463067055E0,1.103859901E1,1.174063162E1
5.925145751E0,2.647026062E0,-1.342723131E0,1.126615524E1,1.165057537E1
5.933171729E0,2.273407936E0,-2.013710737E-1,1.108749485E1,1.131995919E1
5.941197707E0,1.845885277E0,1.072898865E0,1.052659702E1,1.074093335E1
5.949254202E0,1.337266922E0,2.204256535E0,9.700147629E0,1.003692651E1
5.957280181E0,7.278385162E-1,3.188976526E0,8.830751419E0,9.417085049E0
5.965306159E0,2.130889893E-2,4.132635117E0,8.102754593E0,9.095809973E0
5.973332138E0,-7.152957916E-1,4.926994801E0,7.629445076E0,9.110178813E0
5.981388633E0,-1.602049351E0,5.806383610E0,7.169378757E0,9.363794344E0
5.989414612E0,-2.383414745E0,6.549638748E0,6.770613194E0,9.716976721E0
5.997440590E0,-3.120849133E0,7.128677368E0,6.476723671E0,1.012450936E1
6.005466569E0,-3.751336098E0,7.609415054E0,6.310247421E0,1.057331275E1
6.013523065E0,-4.099638462E0,8.106871605E0,6.128925800E0,1.095865568E1
6.021549043E0,-4.138540745E0,8.661403656E0,5.825369835E0,1.122864046E1
6.029575021E0,-4.011673927E0,9.173436165E0,5.571739197E0,1.145817335E1
6.037601000E0,-3.683418751E0,9.680335999E0,5.296710014E0,1.163321175E1
6.045657496E0,-3.336591244E0,1.000558281E1,4.788798332E0,1.158348471E1
6.053683474E0,-3.182374477E0,1.009543991E1,4.264666557E0,1.141195843E1
6.061709453E0,-3.239979744E0,9.997960091E0,3.546473980E0,1.109207611E1
6.069765948E0,-3.625888824E0,9.693634987E0,2.903434038E0,1.074911895E1
6.077791926E0,-4.249791622E0,9.189393044E0,2.403483629E0,1.040588328E1
6.085817904E0,-4.982787609E0,8.625300407E0,2.025752068E0,1.016502095E1
6.093843883E0,-5.689094067E0,8.055917740E0,1.705135107E0,1.000855073E1
6.101900379E0,-6.304270744E0,7.429694176E0,1.405684233E0,9.844802351E0
6.109926357E0,-6.975985527E0,6.853679180E0,1.045015574E0,9.835108028E0
6.117952336E0,-7.571341991E0,6.216418266E0,7.723312378E-1,9.826778269E0
6.125978314E0,-7.934538841E0,5.862249374E0,6.847841740E-1,9.888973845E0
6.134034810E0,-8.178339958E0,5.362201691E0,7.177479267E-1,9.805794895E0
6.142060788E0,-8.218833923E0,4.861254215E0,9.124538898E-1,9.592371746E0
6.150086767E0,-7.919398785E0,4.461554050E0,1.213018417E0,9.170264736E0
6.158143263E0,-7.241860390E0,4.169764042E0,1.317197561E0,8.459697600E0
6.166169241E0,-6.375899315E0,3.911271811E0,1.576112032E0,7.644231053E0
6.174195219E0,-5.363057137E0,3.647290230E0,1.867913246E0,6.749385732E0
6.182221198E0,-4.391001701E0,3.272033453E0,2.187203407E0,5.896690394E0
6.190277693E0,-3.111638069E0,2.736555815E0,2.843183517E0,5.025407617E0
6.198303671E0,-2.171082497E0,1.903064370E0,4.135190964E0,5.043318105E0
6.206329650E0,-1.533051491E0,1.054241419E0,5.611829758E0,5.912216595E0
6.214355628E0,-6.055274010E-1,3.818401098E-1,7.390007019E0,7.424598915E0
6.222412124E0,4.107079506E-1,-1.074100733E-1,9.347183228E0,9.356818489E0
6.230438102E0,1.734190464E0,-3.842246532E-1,1.219411945E1,1.232280789E1
6.238464081E0,4.253439426E0,-4.416704178E-1,1.573071194E1,1.630159863E1
6.246490059E0,8.927465439E0,-9.232527018E-1,2.050020599E1,2.237879533E1
6.254546555E0,1.521807384E1,-3.180821180E0,2.687060738E1,3.104411274E1
6.262572534E0,2.102586937E1,-6.904905319E0,3.279392242E1,3.956268758E1
6.270598512E0,2.796788788E1,-1.226616001E1,3.828996658E1,4.897737207E1
6.278624490E0,3.320947266E1,-1.668688965E1,4.061338806E1,5.505241730E1
6.286680986E0,3.563137054E1,-1.883062553E1,3.852353668E1,5.575168072E1
6.294706965E0,3.483553696E1,-1.946376991E1,3.227426910E1,5.132232867E1
6.302732943E0,3.156941605E1,-1.930534554E1,2.475514603E1,4.452124943E1
6.310758922E0,2.622531128E1,-1.817044067E1,1.597124577E1,3.567930152E1
6.318815416E0,2.032199669E1,-1.643050766E1,8.618662834E0,2.751774846E1
6.326841395E0,1.515823460E1,-1.476827049E1,2.967037678E0,2.137000707E1
6.334867374E0,1.081137085E1,-1.322521782E1,-9.073176384E-1,1.710600337E1
6.342893353E0,7.648137093E0,-1.172928238E1,-3.041782141E0,1.432907899E1
6.350949848E0,4.550760269E0,-9.785022736E0,-4.647171021E0,1.174956542E1
6.358975826E0,2.038276672E0,-7.812979698E0,-5.779257774E0,9.929604422E0
6.367001804E0,2.054829597E-1,-6.171809673E0,-6.887201786E0,9.250243582E0
6.375027783E0,-1.078963757E0,-5.182506561E0,-8.176847458E0,9.740809586E0
6.383084279E0,-2.058651447E0,-4.986798763E0,-9.321662903E0,1.077031137E1
6.391110257E0,-3.273622990E0,-5.200450897E0,-1.057051277E1,1.222689810E1
6.399136236E0,-4.322041512E0,-5.433987141E0,-1.156056404E1,1.348535873E1
6.407192731E0,-5.253146172E0,-5.516427994E0,-1.206423378E1,1.426787508E1
6.415218710E0,-5.726780891E0,-5.498697758E0,-1.227971458E1,1.462269082E1
6.423244688E0,-5.982046127E0,-5.550693035E0,-1.214821434E1,1.463469100E1
6.431301183E0,-6.225183487E0,-5.703193188E0,-1.185242081E1,1.455194836E1
6.439327162E0,-6.609688759E0,-6.051948547E0,-1.150928688E1,1.458690341E1
6.447353140E0,-7.033599854E0,-6.436513424E0,-1.109384632E1,1.462783846E1
6.455379120E0,-7.641297817E0,-6.852555275E0,-1.044248199E1,1.464214384E1
6.463435614E0,-8.350016594E0,-7.120790005E0,-9.658515930E0,1.461900672E1
6.471461593E0,-9.166350365E0,-7.252252579E0,-8.559065819E0,1.448705471E1
6.479487571E0,-9.931350708E0,-7.350094795E0,-7.329957962E0,1.436606780E1
6.487513550E0,-1.045134544E1,-7.597566605E0,-5.899381638E0,1.420409601E1
6.495570046E0,-1.051760387E1,-8.264673233E0,-4.556197166E0,1.413094999E1
6.503596024E0,-1.027009392E1,-9.085858345E0,-3.476712227E0,1.414620723E1
6.511622002E0,-1.001712322E1,-9.986616135E0,-2.121781111E0,1.430304913E1
6.519647981E0,-9.753963470E0,-1.054963112E1,-9.769051075E-1,1.440100218E1
6.527704477E0,-9.359384537E0,-1.073297691E1,-5.634831190E-1,1.425175026E1
6.535730455E0,-9.205034256E0,-1.066148186E1,-6.797126532E-1,1.410183890E1
6.543756434E0,-9.288413048E0,-1.044783401E1,-1.044468522E0,1.401865782E1
6.551782412E0,-9.678398132E0,-1.002588272E1,-1.584343433E0,1.402497269E1
6.559838907E0,-1.030577755E1,-9.568949699E0,-1.808488846E0,1.417901552E1
6.567864885E0,-1.126155090E1,-9.171106339E0,-1.450281501E0,1.459571981E1
6.575890865E0,-1.198304272E1,-8.794750214E0,-4.628127813E-1,1.487128575E1
6.583916843E0,-1.237180138E1,-8.548397064E0,7.026238441E-1,1.505424332E1
6.591973338E0,-1.250539970E1,-8.185557365E0,1.677040100E0,1.503997456E1
6.599999317E0,-1.242043495E1,-7.540878296E0,1.217207789E0,1.458127720E1
6.608025295E0,-1.253957748E1,-6.657847881E0,-7.649562359E-1,1.421805542E1
6.616051273E0,-1.292605019E1,-5.724588394E0,-3.696953773E0,1.461236302E1
6.624107769E0,-1.386279202E1,-4.867237568E0,-6.420115471E0,1.603386687E1
6.632133748E0,-1.508861256E1,-3.611676216E0,-9.409802437E0,1.814538001E1
6.640159726E0,-1.661386490E1,-2.035860300E0,-1.172595310E1,2.043681018E1
6.648185705E0,-1.771541786E1,-8.311004639E-1,-1.264371777E1,2.178050406E1
6.656242200E0,-1.936104584E1,-1.867508888E-1,-1.088309765E1,2.221096095E1
6.664268179E0,-1.892867279E1,-2.328176498E-1,-8.227258682E0,2.064065510E1
6.672294157E0,-1.721434021E1,-1.305624962E0,-5.188271999E0,1.802654520E1
6.680320136E0,-1.523779488E1,-2.473791361E0,-1.121799707E0,1.547799958E1
6.688376632E0,-1.330195999E1,-2.532494545E0,2.735396385E0,1.381441499E1
6.696402610E0,-1.155474281E1,-1.616980076E0,5.845269680E0,1.304966987E1
6.704428588E0,-9.371845245E0,-2.898614407E-1,7.444127560E0,1.197207326E1
6.712485083E0,-7.744039059E0,1.851030111E0,7.392683029E0,1.086499958E1
6.720511062E0,-6.414615631E0,4.508516312E0,6.121338367E0,9.947099901E0
6.728537040E0,-4.941561699E0,7.629714966E0,4.324846745E0,1.006657250E1
6.736563019E0,-3.207172394E0,1.081864262E1,3.448405504E0,1.179917299E1
6.744619514E0,-5.505065918E-1,1.401488113E1,4.747338295E0,1.480733506E1
6.752645493E0,2.785638809E0,1.639247513E1,8.013409615E0,1.845772895E1
6.760671471E0,7.056045532E0,1.806057358E1,1.344956398E1,2.359794202E1
6.768727967E0,1.171006298E1,1.808566856E1,1.940757561E1,2.899777532E1
6.776753946E0,1.617197800E1,1.722731781E1,2.520498466E1,3.454858323E1
6.784779924E0,2.018038177E1,1.580955791E1,3.150432014E1,4.061664828E1
6.792836419E0,2.406713295E1,1.436316681E1,3.722677612E1,4.659785735E1
6.800862397E0,2.898338318E1,1.222829056E1,4.255537415E1,5.292001001E1
6.808888377E0,3.364833832E1,9.287729263E0,4.400492096E1,5.616854685E1
6.816944872E0,3.679498672E1,6.106505394E0,4.106580734E1,5.547576939E1
6.824970850E0,3.752014923E1,3.576355696E0,3.402159119E1,5.077421181E1
6.832996829E0,3.627701187E1,2.114173174E0,2.642341042E1,4.492981122E1
6.841022807E0,3.344016266E1,1.028953075E0,1.756714630E1,3.778766799E1
6.849079303E0,2.973767471E1,2.438516617E-1,9.752719879E0,3.129703350E1
6.857105281E0,2.574422836E1,-1.523475647E-1,3.534037590E0,2.598611024E1
6.865131260E0,2.245356750E1,-3.521766663E-1,-3.990585804E-1,2.245987466E1
6.873157238E0,2.017945099E1,-5.827064514E-1,-1.410916328E0,2.023710636E1
6.881213734E0,1.764795494E1,-1.028840065E0,-6.164743900E-1,1.768866491E1
6.889239712E0,1.521073341E1,-1.776778221E0,1.718429565E0,1.541026775E1
6.897265691E0,1.274475384E1,-2.644994259E0,4.506342888E0,1.377431927E1
6.905322186E0,9.738729477E0,-3.757725716E0,6.830834389E0,1.247492095E1
6.913348164E0,6.858380318E0,-4.713407993E0,7.916493416E0,1.148583752E1
6.921374143E0,3.341495037E0,-5.673809052E0,7.950904369E0,1.032349643E1
6.929400122E0,2.718319893E-1,-6.359265804E0,6.689365387E0,9.233729663E0
6.937456617E0,-2.186866760E0,-6.831755638E0,4.497529984E0,8.466584156E0
6.945482595E0,-4.023737907E0,-7.117237568E0,1.701126814E0,8.351010106E0
6.953508574E0,-5.307862282E0,-7.212441921E0,-8.303012848E-1,8.993448765E0
6.961534552E0,-6.527041912E0,-7.055052757E0,-3.657621861E0,1.028368821E1
6.969591048E0,-7.652652740E0,-6.762760639E0,-6.002948761E0,1.184624072E1
6.977617027E0,-8.633446693E0,-6.572525024E0,-7.769758224E0,1.334554719E1
6.985643005E0,-9.550945282E0,-6.871758461E0,-8.709793091E0,1.463906130E1
6.993668983E0,-1.013574600E1,-6.418174267E0,-9.350176811E0,1.521026345E1
7.001725479E0,-1.025405693E1,-6.286184788E0,-1.002410507E1,1.565709057E1
7.009751458E0,-1.025148392E1,-6.639395237E0,-1.001081467E1,1.579211518E1
7.017777436E0,-1.019409275E1,-6.836628437E0,-9.440408707E0,1.548484201E1
7.025803415E0,-1.036560440E1,-6.837230206E0,-8.396983147E0,1.499008997E1
7.033829393E0,-1.053544426E1,-6.757194519E0,-7.166113377E0,1.442249786E1
7.041885889E0,-1.055578423E1,-6.749605656E0,-5.624217987E0,1.373366612E1
7.049911867E0,-1.054473686E1,-6.767292976E0,-4.024317265E0,1.315989586E1
7.057937846E0,-1.039441490E1,-6.934204578E0,-1.643898487E0,1.260275591E1
7.065963824E0,-1.071597576E1,-6.723575592E0,2.204845548E-1,1.265255779E1
7.074020319E0,-1.012399769E1,-6.738432884E0,5.916290879E-1,1.217587089E1
7.082046297E0,-9.968490601E0,-7.013015270E0,1.546168327E0,1.228591977E1
7.090072276E0,-9.926419258E0,-7.226767540E0,2.134036064E0,1.246250690E1
7.098098254E0,-1.026071930E1,-7.359238148E0,2.790816307E0,1.293172078E1
7.106124233E0,-1.101611328E1,-7.402660370E0,3.589892864E0,1.374923500E1
7.114180729E0,-1.158370018E1,-7.489985466E0,4.314500332E0,1.445326625E1
7.122206707E0,-1.197492790E1,-7.641962528E0,5.002506733E0,1.506066277E1
7.130232686E0,-1.205071163E1,-7.785024643E0,5.377010345E0,1.532117815E1
7.138258664E0,-1.208139420E1,-7.811362743E0,5.281409740E0,1.532549387E1
7.146315160E0,-1.207857132E1,-7.730972290E0,4.800348282E0,1.512293494E1
7.154341138E0,-1.203683662E1,-7.482595444E0,4.153405190E0,1.476907056E1
7.162367117E0,-1.208635139E1,-7.087669373E0,3.241737366E0,1.438137018E1
7.170393095E0,-1.239978981E1,-6.667231560E0,2.368877411E0,1.427649622E1
7.178419074E0,-1.285602188E1,-6.448231220E0,1.685902119E0,1.448099618E1
7.186475569E0,-1.352232838E1,-6.364399433E0,1.128293514E0,1.498772802E1
7.194501548E0,-1.447489548E1,-6.382740021E0,8.087444305E-1,1.584032944E1
7.202527526E0,-1.544688129E1,-6.437473297E0,5.358084440E-1,1.674318652E1
7.210553505E0,-1.680381775E1,-6.646905422E0,3.741598129E-1,1.807455776E1
7.218610000E0,-1.844677353E1,-7.126855850E0,2.737292051E-1,1.977752400E1
7.226635978E0,-1.973667717E1,-7.496272564E0,1.780898571E-1,2.111308230E1
7.234661957E0,-1.989441299E1,-7.302552223E0,1.835801601E-1,2.119312717E1
7.242687936E0,-1.874596405E1,-6.471351624E0,1.370259523E-1,1.983200283E1
7.250744431E0,-1.631272316E1,-5.201839447E0,-1.014209986E-1,1.712233503E1
7.258770409E0,-1.362110519E1,-3.588623524E0,-6.500211358E-1,1.410089547E1
7.266796388E0,-1.116466522E1,-1.920250297E0,-1.411640644E0,1.141620953E1
7.274822366E0,-9.459715843E0,-6.441986561E-1,-2.209127903E0,9.735577119E0
7.282878862E0,-8.441937447E0,2.028706074E-1,-2.885639191E0,8.923809605E0
7.290904840E0,-7.575506210E0,4.486832619E-1,-3.685469151E0,8.436367339E0
7.298930819E0,-6.885357857E0,5.588233471E-1,-4.461537361E0,8.223487823E0
7.306956797E0,-5.552038193E0,1.392011642E0,-4.936074257E0,7.558283772E0
7.315013293E0,-4.073083878E0,2.415154934E0,-5.015334129E0,6.897576535E0
7.323039272E0,-2.237860680E0,3.859251738E0,-4.314777374E0,6.206379636E0
7.331065250E0,1.254115105E0,6.690809250E0,-3.027758121E0,7.450305521E0
7.339121745E0,6.252820015E0,1.015614986E1,-1.609115720E0,1.203471610E1
7.347147723E0,1.217708683E1,1.282451248E1,-1.723951101E-1,1.768556711E1
7.355173703E0,1.889245605E1,1.436973572E1,1.352467775E0,2.377484741E1
7.363199681E0,2.430787659E1,1.484280968E1,3.017664671E0,2.864067323E1
7.371256176E0,3.004471588E1,1.406182289E1,5.505340099E0,3.362630793E1
7.379282154E0,3.385027313E1,1.276368713E1,9.396445274E0,3.737707699E1
7.387308133E0,3.588346863E1,1.273387432E1,1.526215458E1,4.102082689E1
7.395334111E0,3.733967972E1,1.327803040E1,2.345984268E1,4.605346883E1
7.403390607E0,3.915290451E1,1.304451084E1,3.094260979E1,5.158056121E1
7.411416586E0,4.047359467E1,1.116413784E1,3.732612228E1,5.617819189E1
7.419442564E0,3.927691269E1,8.509579659E0,3.888216019E1,5.591879109E1
7.427468542E0,3.524333572E1,5.084569931E0,3.632667542E1,5.086819154E1
7.435525038E0,2.878360748E1,1.733289242E0,3.101205635E1,4.234675891E1
7.443551017E0,2.235820770E1,-5.511903763E-2,2.544755745E1,3.387433645E1
7.451576995E0,1.542489815E1,-1.038061380E0,1.893017197E1,2.444087693E1
7.459602974E0,1.071035385E1,-1.585693955E0,1.309799957E1,1.699363698E1
7.467659470E0,8.475616455E0,-1.877021194E0,8.292035103E0,1.200487938E1
7.475685448E0,7.705337048E0,-1.517047644E0,4.455737114E0,9.029243922E0
7.483711426E0,7.279415607E0,-8.107802868E-1,1.859741211E0,7.556844158E0
7.491767921E0,6.776677132E0,1.654500961E-1,-6.198859215E-1,6.806980626E0
7.499793900E0,6.157704353E0,9.979817867E-1,-2.503372669E0,6.721619245E0
7.507819878E0,5.078114986E0,1.309814215E0,-3.887444735E0,6.528023564E0
7.515845857E0,3.784893990E0,1.201585054E0,-4.641760826E0,6.108614632E0
7.523871835E0,2.618479729E0,8.715224266E-1,-4.629935741E0,5.390017848E0
7.531928331E0,1.193475246E0,3.692350388E-1,-4.068403244E0,4.255892695E0
7.539954309E0,-4.764075279E-1,-2.936918736E-1,-3.153888702E0,3.203159846E0
7.547980288E0,-2.223691940E0,-1.061451435E0,-2.302327633E0,3.372268898E0
7.556006266E0,-3.882841825E0,-1.867900610E0,-1.676716805E0,4.623515175E0
7.564062762E0,-5.080010414E0,-2.676760674E0,-1.425884962E0,5.916477114E0
7.572088740E0,-6.265679359E0,-3.705063343E0,-1.406666517E0,7.413834561E0
7.580114719E0,-7.319225788E0,-4.642902374E0,-1.636733770E0,8.820799625E0
7.588140697E0,-8.264114380E0,-5.321046352E0,-2.083152294E0,1.004732025E1
7.596197193E0,-9.142760277E0,-5.782275200E0,-2.672248363E0,1.114296564E1
7.604223172E0,-9.862511635E0,-6.053739548E0,-3.254084110E0,1.202106325E1
7.612249150E0,-1.048578644E1,-6.376471519E0,-4.054380417E0,1.292474784E1
7.620305645E0,-1.105896568E1,-6.656264305E0,-4.805223465E0,1.377304429E1
7.628331623E0,-1.156816292E1,-6.894225121E0,-5.442911148E0,1.452508227E1
7.636357602E0,-1.204143620E1,-7.091310978E0,-5.823941231E0,1.513939129E1
7.644383580E0,-1.239701843E1,-7.182665348E0,-5.899012566E0,1.549435693E1
7.652440076E0,-1.256555367E1,-7.200605869E0,-5.715180397E0,1.556936578E1
7.660466055E0,-1.252211761E1,-7.225023270E0,-5.274176598E0,1.538900028E1
7.668492033E0,-1.226357651E1,-7.363140106E0,-4.528238773E0,1.500386908E1
7.676518011E0,-1.164619446E1,-7.510949135E0,-3.585387707E0,1.431444052E1
7.684574507E0,-1.075980949E1,-7.412850380E0,-2.575787067E0,1.331760227E1
7.692600486E0,-9.692013741E0,-7.125535011E0,-1.240791559E0,1.209330159E1
7.700626464E0,-8.895129204E0,-6.808557510E0,1.444365978E-1,1.120270685E1
7.708682960E0,-8.319624901E0,-6.403580666E0,1.405595779E0,1.059234173E1
7.716708938E0,-7.932159424E0,-5.924961567E0,2.296460152E0,1.016356492E1
7.724734917E0,-7.855259895E0,-5.539886475E0,2.715068340E0,9.988345522E0
7.732760895E0,-8.196304321E0,-5.190587997E0,2.764290333E0,1.008776037E1
7.740786874E0,-8.847857475E0,-4.895023346E0,2.447687149E0,1.040370164E1
7.748843369E0,-9.662067413E0,-4.690190792E0,1.952306151E0,1.091626931E1
7.756869347E0,-1.054394817E1,-4.628250599E0,1.456955791E0,1.160681984E1
7.764895325E0,-1.121067619E1,-4.698438644E0,9.380272627E-1,1.219157420E1
7.772921304E0,-1.180891895E1,-4.871945381E0,1.769338846E-1,1.277566923E1
7.780977800E0,-1.259845448E1,-5.099209785E0,-6.530719995E-1,1.360696508E1
7.789003778E0,-1.329307461E1,-5.407787323E0,-1.570366621E0,1.443662175E1
7.797029757E0,-1.433306885E1,-5.644508839E0,-2.596032619E0,1.562167494E1
7.805055735E0,-1.558494759E1,-5.809084892E0,-3.751858234E0,1.705029322E1
7.813112231E0,-1.673939705E1,-5.984067440E0,-5.484687805E0,1.860371675E1
7.821138209E0,-1.810113907E1,-5.966278076E0,-7.389380455E0,2.044139558E1
7.829164188E0,-1.897341156E1,-5.820094109E0,-9.077157974E0,2.182335076E1
7.837190166E0,-1.970147514E1,-5.798738480E0,-1.028960228E1,2.297062049E1
7.845216145E0,-2.070950317E1,-5.916525364E0,-1.100918102E1,2.418865149E1
7.853272641E0,-2.109056664E1,-5.800056458E0,-1.065555382E1,2.433091620E1
7.861298619E0,-2.094470978E1,-5.124368668E0,-8.844261169E0,2.330581424E1
7.869324597E0,-1.965031624E1,-4.544939995E0,-7.416721344E0,2.148951287E1
7.877350576E0,-1.768400955E1,-4.331747055E0,-5.495222569E0,1.901803611E1
7.885498622E0,-1.545826530E1,-3.539221287E0,-3.647945404E0,1.627241713E1
7.893524600E0,-1.346196175E1,-2.334535360E0,-2.339896202E0,1.386180304E1
7.901550579E0,-1.091337681E1,-7.117016315E-1,-1.080730677E0,1.098982672E1
7.909607075E0,-8.475760460E0,1.373403311E0,-1.189403534E-1,8.587135660E0
7.917633053E0,-5.188445091E0,4.213698387E0,1.299746037E0,6.809152394E0
7.925659032E0,-4.854125977E-1,7.673995972E0,3.803658009E0,8.578674362E0
7.933685010E0,3.907109261E0,1.092214966E1,6.845900536E0,1.346941758E1
7.941741506E0,8.995059967E0,1.370886421E1,1.100297737E1,1.974612805E1
7.949767484E0,1.257205868E1,1.427113533E1,1.511315632E1,2.429258029E1
7.957793463E0,1.479283905E1,1.262858105E1,1.882307816E1,2.706690632E1
7.965819441E0,1.699667740E1,1.022767735E1,2.384289742E1,3.101574090E1
7.973875936E0,1.921451569E1,8.195755005E0,3.087736511E1,3.727974905E1
7.981901915E0,2.357455444E1,6.276132584E0,4.286881638E1,4.932428281E1
7.989927894E0,3.024984932E1,4.319859982E0,5.382675171E1,6.189534533E1
7.997953872E0,3.791093826E1,1.015967607E0,5.921827316E1,7.032122942E1
8.006010367E0,4.393734360E1,-2.438835621E0,5.910995483E1,7.369141634E1
8.014036346E0,4.560390854E1,-4.226965904E0,5.502430725E1,7.159090796E1
8.022062324E0,4.270878220E1,-5.257339478E0,4.588693619E1,6.290699967E1
8.030088303E0,3.676384735E1,-6.016195297E0,3.372340393E1,5.024980647E1
8.038144798E0,2.990155029E1,-6.704155922E0,2.140278244E1,3.737816893E1
8.046170777E0,2.375072098E1,-6.749752522E0,1.157607651E1,2.727015683E1
8.054196755E0,1.963059998E1,-6.101281166E0,5.527315617E0,2.128702199E1
8.062222734E0,1.592602634E1,-4.919389725E0,7.207984924E-1,1.668407207E1
8.070248712E0,1.294176865E1,-3.673487425E0,-2.249370337E0,1.363977831E1
8.078305208E0,1.013939381E1,-2.493408680E0,-3.848342657E0,1.112807867E1
8.086331186E0,7.422801495E0,-1.571056724E0,-4.591382027E0,8.868313829E0
8.094357165E0,5.298631668E0,-1.044480562E0,-4.902355194E0,7.293800357E0
8.102383143E0,3.118691921E0,-7.641110420E-1,-5.227325439E0,6.134740111E0
8.110409122E0,1.177599907E0,-8.962485790E-1,-5.782293797E0,5.968661877E0
8.118435100E0,-5.335397720E-1,-1.277088165E0,-6.481758595E0,6.627881513E0
8.126491596E0,-1.975855350E0,-1.813404322E0,-7.123253822E0,7.611385197E0
8.134517575E0,-3.067202806E0,-2.407866001E0,-7.543016911E0,8.491328273E0
8.142543553E0,-4.225028992E0,-3.268953800E0,-7.896145821E0,9.533417422E0
8.150600048E0,-5.855752945E0,-4.231647491E0,-7.924480438E0,1.072352896E1
8.158626026E0,-6.377225876E0,-5.173976421E0,-7.963969231E0,1.143957376E1
8.166652005E0,-6.841689110E0,-5.819638729E0,-7.839184761E0,1.192181708E1
8.174677984E0,-7.155872345E0,-6.124360085E0,-7.549032688E0,1.207071622E1
8.182734479E0,-7.561388016E0,-6.182985306E0,-7.256521225E0,1.216803174E1
8.190760457E0,-7.982480049E0,-6.007252216E0,-6.994362831E0,1.219541628E1
8.198786436E0,-8.471376419E0,-5.825081825E0,-6.782461166E0,1.231655699E1
8.206812414E0,-9.085162163E0,-5.851795197E0,-6.632876873E0,1.267985545E1
8.214868910E0,-9.672301292E0,-5.925736427E0,-6.455445290E0,1.305145733E1
8.222894889E0,-1.017471600E1,-6.089747429E0,-6.248668671E0,1.340357152E1
8.230920867E0,-1.095148849E1,-6.269137383E0,-5.971405029E0,1.396047498E1
8.238946845E0,-1.172070503E1,-6.355585575E0,-5.589800835E0,1.445732575E1
8.247003341E0,-1.230821609E1,-6.479282379E0,-5.086244583E0,1.481023861E1
8.255029320E0,-1.277951241E1,-6.620936394E0,-4.431267738E0,1.505951094E1
8.263055298E0,-1.331841087E1,-6.881233215E0,-3.250939846E0,1.533949310E1
8.271111793E0,-1.371939087E1,-6.883900642E0,-2.397866726E0,1.553575034E1
8.279137771E0,-1.363567162E1,-7.196220398E0,-2.007283926E0,1.554819337E1
8.287163750E0,-1.355590630E1,-7.494858265E0,-1.579893470E0,1.557021385E1
8.295189729E0,-1.345882416E1,-7.550263405E0,-1.345892310E0,1.549057298E1
8.303215708E0,-1.336915588E1,-7.341799736E0,-1.257942915E0,1.530420768E1
8.311272203E0,-1.334862423E1,-6.807262421E0,-1.109921455E0,1.502519604E1
8.319298181E0,-1.346203232E1,-6.252747536E0,-9.631160498E-1,1.487450027E1
8.327324160E0,-1.368587112E1,-5.849025726E0,-8.293776512E-1,1.490644282E1
8.335350138E0,-1.380965805E1,-5.575738430E0,-8.757929802E-1,1.491852968E1
8.343406634E0,-1.388445091E1,-5.280721188E0,-1.067178726E0,1.489304750E1
8.351432612E0,-1.399736404E1,-4.982136250E0,-1.461907744E0,1.492933542E1
8.359458591E0,-1.421395111E1,-4.795984745E0,-2.050256252E0,1.514072081E1
8.367484569E0,-1.450737190E1,-4.740412712E0,-2.684092045E0,1.549644160E1
8.375510548E0,-1.493543720E1,-4.780948639E0,-3.395341396E0,1.604534504E1
8.383567043E0,-1.549387550E1,-4.978182316E0,-4.114698887E0,1.678610212E1
8.391593022E0,-1.609871674E1,-5.075076103E0,-4.982314110E0,1.759967420E1
8.399619000E0,-1.662774658E1,-4.943511486E0,-5.808268547E0,1.829361216E1
8.407644979E0,-1.708200264E1,-4.700203419E0,-6.525503159E0,1.888038447E1
8.415670957E0,-1.735316849E1,-4.598269939E0,-7.139983177E0,1.931983185E1
8.423727453E0,-1.724602127E1,-4.537037849E0,-7.461130142E0,1.933076370E1
8.431753431E0,-1.681130600E1,-4.562679291E0,-7.721083641E0,1.905395456E1
8.439779410E0,-1.624388123E1,-4.533948898E0,-7.342800140E0,1.839394150E1
8.447805388E0,-1.535585785E1,-4.347356796E0,-6.763107300E0,1.733324845E1
8.455861883E0,-1.398244858E1,-4.055843830E0,-6.357392311E0,1.588632035E1
8.463887862E0,-1.248716927E1,-3.936085701E0,-6.109989166E0,1.444832636E1
8.471913840E0,-1.049466133E1,-3.766875505E0,-5.574640751E0,1.246610954E1
8.479939818E0,-8.266637802E0,-3.016644239E0,-4.308774948E0,9.798111276E0
8.487965798E0,-5.676688194E0,-1.527662992E0,-2.194664240E0,6.274957705E0
8.495991776E0,-2.008241177E0,7.915470600E-1,6.736993790E-1,2.261293927E0
8.504048271E0,1.919252396E0,3.519435167E0,3.766761303E0,5.500767616E0
8.512074250E0,6.857911110E0,6.634135246E0,7.816492558E0,1.233451463E1
8.520100228E0,1.117868614E1,7.747708797E0,1.193035984E1,1.809208394E1
8.528126207E0,1.424957848E1,6.481611729E0,1.514227104E1,2.177958103E1
8.536182702E0,1.520096493E1,3.937017679E0,1.690755081E1,2.307454696E1
8.544208681E0,1.528467941E1,1.906112432E0,1.765386581E1,2.342890667E1
8.552234659E0,1.579591751E1,6.327145100E-1,1.908871460E1,2.478488174E1
8.560260638E0,1.723794746E1,6.738989353E-1,2.129638290E1,2.740687683E1
8.568286616E0,2.052169800E1,2.017523527E0,2.422554779E1,3.181332513E1
8.576343112E0,2.497441673E1,3.665764332E0,2.676976395E1,3.679374378E1
8.584369090E0,2.843606186E1,4.508617401E0,2.780787277E1,4.002767834E1
8.592395069E0,3.044596481E1,4.722909927E0,2.767918587E1,4.141738743E1
8.600421047E0,2.981390381E1,4.187025547E0,2.571203041E1,3.959177378E1
8.608447026E0,2.676358223E1,3.621407270E0,2.230558205E1,3.502774493E1
8.616503522E0,2.260125732E1,3.334389210E0,1.800080681E1,2.908546080E1
8.624529500E0,1.919900703E1,3.155614376E0,1.421446037E1,2.409586390E1
8.632555478E0,1.573175144E1,3.412682772E0,1.059443855E1,1.927113218E1
8.640581457E0,1.313167191E1,4.124475479E0,8.421812057E0,1.613626423E1
8.648637952E0,1.175475025E1,4.913526535E0,7.507620811E0,1.478787567E1
8.656663930E0,1.111230087E1,5.770475388E0,7.560844898E0,1.462696115E1
8.664689909E0,1.057667637E1,6.254551888E0,7.888573170E0,1.460188649E1
8.672715888E0,9.726746559E0,6.341349602E0,8.241500854E0,1.423884299E1
8.680772383E0,8.676126480E0,6.065901756E0,8.722839355E0,1.371707918E1
8.688798361E0,7.653408051E0,5.535575867E0,9.218656540E0,1.319851823E1
8.696824340E0,6.312956333E0,4.775178909E0,9.224079132E0,1.215480922E1
8.704850318E0,4.766142845E0,3.956964731E0,8.625530243E0,1.061948490E1
8.712876297E0,2.897731304E0,3.056499243E0,7.433254242E0,8.543553298E0
8.720932793E0,1.200144291E0,2.314829111E0,6.051038265E0,6.588918289E0
8.728958771E0,-1.624283791E-1,1.706587553E0,4.614335060E0,4.922490437E0
8.736984749E0,-1.313264370E0,1.056787729E0,3.156255245E0,3.578185404E0
8.745041245E0,-2.241100788E0,5.472352505E-1,1.971927643E0,3.034880194E0
8.753067224E0,-3.424291134E0,2.621459961E-2,5.895056725E-1,3.474762425E0
8.761093202E0,-4.593699932E0,-4.626852274E-1,-7.398667336E-1,4.675848529E0
8.769119181E0,-5.775010109E0,-9.111493826E-1,-1.906418085E0,6.149419881E0
8.777175675E0,-6.952284813E0,-1.356765270E0,-2.809238911E0,7.620163999E0
8.785201654E0,-7.889847279E0,-1.717614412E0,-3.395082951E0,8.759365136E0
8.793227633E0,-8.906078339E0,-2.191808701E0,-3.935195923E0,9.980381942E0
8.801253612E0,-9.860664368E0,-2.647107124E0,-4.304056168E0,1.107992678E1
8.809279590E0,-1.063860989E1,-3.091746330E0,-4.504137039E0,1.195935475E1
8.817336085E0,-1.114935875E1,-3.468586445E0,-4.552118778E0,1.253240112E1
8.825362063E0,-1.149113083E1,-3.742340565E0,-4.493785858E0,1.289361516E1
8.833388042E0,-1.167934513E1,-4.024315357E0,-4.356724739E0,1.309897963E1
8.841414020E0,-1.197769547E1,-4.277994156E0,-4.226581573E0,1.340262715E1
8.849439999E0,-1.195621967E1,-4.540041924E0,-4.137152672E0,1.344169639E1
8.857496495E0,-1.203533936E1,-4.706328869E0,-4.046904087E0,1.354165269E1
8.865547648E0,-1.222115517E1,-4.743120670E0,-4.079377174E0,1.372935342E1
8.873573634E0,-1.236527157E1,-4.680373192E0,-4.107041359E0,1.384462433E1
8.881599619E0,-1.253454685E1,-4.612212181E0,-4.089504719E0,1.396822877E1
8.889656122E0,-1.267665005E1,-4.511464596E0,-4.070209980E0,1.405764484E1
8.897682108E0,-1.284528732E1,-4.479290485E0,-3.988341331E0,1.417647051E1
8.905708093E0,-1.312981224E1,-4.450853348E0,-3.748486996E0,1.436151871E1
8.913734079E0,-1.352398682E1,-4.380834579E0,-3.261271715E0,1.458512339E1
8.921790582E0,-1.392335892E1,-4.350904465E0,-2.700526714E0,1.483519928E1
8.929816568E0,-1.411984348E1,-4.386209965E0,-2.171738386E0,1.494407125E1
8.937842553E0,-1.413664246E1,-4.421068668E0,-1.689895868E0,1.490792595E1
8.945868539E0,-1.407533073E1,-4.352421284E0,-1.438946247E0,1.480300890E1
8.953925041E0,-1.385796833E1,-4.188518524E0,-1.295292497E0,1.453494948E1
8.961951026E0,-1.370093250E1,-3.930362940E0,-1.337426662E0,1.431614523E1
8.969977012E0,-1.365081406E1,-3.596391201E0,-1.594789743E0,1.420641082E1
8.978033515E0,-1.360305595E1,-3.052734852E0,-2.039689779E0,1.408980680E1
8.986059500E0,-1.379668236E1,-2.622533798E0,-2.573336124E0,1.427754133E1
8.994085486E0,-1.399329567E1,-2.224067688E0,-3.020196676E0,1.448724918E1
9.002111472E0,-1.410189056E1,-1.708352089E0,-3.394076347E0,1.460484641E1
9.010167975E0,-1.401129150E1,-1.349956155E0,-3.621817827E0,1.453465636E1
9.018193960E0,-1.360374451E1,-9.993851185E-1,-3.738490582E0,1.414344184E1
9.026219946E0,-1.298077202E1,-7.175488472E-1,-3.825859547E0,1.355184562E1
9.034245931E0,-1.235619259E1,-5.587109327E-1,-3.859342575E0,1.295693553E1
9.042302434E0,-1.144515228E1,-5.814207792E-1,-3.776629210E0,1.206617127E1
9.050328420E0,-1.074246216E1,-6.904361248E-1,-3.490384579E0,1.131635894E1
9.058354405E0,-1.015464592E1,-5.442663431E-1,-3.149426460E0,1.064574782E1
9.066380391E0,-9.274153709E0,-4.935264587E-4,-2.520279169E0,9.610501254E0
9.074436893E0,-8.137039185E0,7.762880325E-1,-1.779249907E0,8.365390608E0
9.082462879E0,-6.170266628E0,1.962683201E0,-6.539018154E-1,6.507833986E0
9.090488864E0,-4.158867359E0,3.319040537E0,7.064106464E-1,5.367608760E0
9.098545367E0,-2.196000099E0,4.707333088E0,2.100629807E0,5.603039070E0
9.106571353E0,-1.326675415E-1,5.966531754E0,3.539530516E0,6.938687060E0
9.114597338E0,1.446404457E0,6.801844597E0,4.977399826E0,8.551706543E0
9.122623324E0,3.187359810E0,7.493840218E0,6.980062485E0,1.072558511E1
9.130679827E0,5.291378975E0,8.029940605E0,9.409008980E0,1.345392462E1
9.138705812E0,7.975794792E0,8.786677361E0,1.230246544E1,1.709297100E1
9.146731798E0,1.175346279E1,9.725462914E0,1.515077400E1,2.150056905E1
9.154788301E0,1.608085632E1,1.053640270E1,1.775491333E1,2.616957526E1
9.162814287E0,2.159935379E1,1.099851608E1,2.150271606E1,3.240163944E1
9.170840272E0,2.698965836E1,1.049376583E1,2.541860771E1,3.853136901E1
9.178896774E0,3.094312286E1,9.655252457E0,2.815614128E1,4.293563840E1
9.186922760E0,3.339043808E1,8.631512642E0,2.873327827E1,4.488903704E1
9.194948745E0,3.424080658E1,7.474632263E0,2.764453125E1,4.463768666E1
9.203005248E0,3.291763687E1,5.849431038E0,2.485860634E1,4.166217673E1
9.211031234E0,2.934915352E1,4.181725502E0,2.118684578E1,3.643819527E1
9.219057219E0,2.496142197E1,2.515636683E0,1.749285316E1,3.058432485E1
9.227113722E0,2.031654358E1,1.102788925E0,1.420686436E1,2.481558142E1
9.235139708E0,1.672243500E1,3.453493118E-2,1.174933815E1,2.043741598E1
9.243165694E0,1.322443008E1,-7.617857456E-1,9.553402901E0,1.633197403E1
9.251191679E0,1.053227234E1,-1.056957006E0,7.952116489E0,1.323941371E1
9.259248181E0,8.674117088E0,-8.649673462E-1,6.664256573E0,1.097272944E1
9.267274168E0,7.624530792E0,-2.472896576E-1,5.317144394E0,9.298744350E0
9.275300153E0,7.089776993E0,3.640315533E-1,4.014214993E0,8.155450863E0
9.283356655E0,6.522767067E0,1.043635368E0,2.230192184E0,6.972045767E0
9.291382641E0,6.140383720E0,1.539371967E0,2.163305283E-1,6.334096398E0
9.299408626E0,5.577435970E0,1.757118225E0,-1.747188568E0,6.103107762E0
9.307465129E0,4.695446491E0,1.641587734E0,-3.539969206E0,6.105195330E0
9.315491115E0,3.777356148E0,1.047039032E0,-4.850325584E0,6.236214274E0
9.323517101E0,2.596956253E0,4.852986336E-2,-6.114199162E0,6.643039087E0
9.331543086E0,5.452799797E-1,-9.048609734E-1,-7.034334660E0,7.113224848E0
9.339599589E0,-9.777884483E-1,-1.835587740E0,-7.738794327E0,8.013388187E0
9.347625575E0,-2.352304459E0,-2.970953941E0,-8.638455391E0,9.433070292E0
9.355651560E0,-3.566364765E0,-3.960221291E0,-9.130237579E0,1.057182806E1
9.363708062E0,-5.071134567E0,-4.820584297E0,-9.435607910E0,1.174670743E1
9.371734048E0,-6.520861149E0,-5.232225418E0,-9.475671768E0,1.263669927E1
9.379760034E0,-7.825049400E0,-5.370132446E0,-9.281141281E0,1.327438526E1
9.387786020E0,-9.019972801E0,-5.465190411E0,-8.984754562E0,1.385474757E1
9.395842522E0,-9.867183685E0,-5.470602036E0,-8.610078812E0,1.419233095E1
9.403868508E0,-1.064273739E1,-5.454163551E0,-8.139804840E0,1.446624284E1
9.411894493E0,-1.119777966E1,-5.480012417E0,-7.702941895E0,1.465455967E1
9.419950996E0,-1.156926155E1,-5.569297314E0,-7.403113365E0,1.482130132E1
9.427976982E0,-1.177764702E1,-5.779179096E0,-7.197039127E0,1.496359758E1
9.436002967E0,-1.196101189E1,-5.994378090E0,-6.919024467E0,1.506224663E1
9.444059470E0,-1.222082138E1,-6.159314156E0,-6.524970055E0,1.516116289E1
9.452085456E0,-1.252127838E1,-6.058271408E0,-6.180348396E0,1.522109625E1
9.460111441E0,-1.275117302E1,-5.922225952E0,-5.787999630E0,1.520414790E1
9.468137427E0,-1.286792755E1,-5.725325584E0,-5.190574646E0,1.501016248E1
9.476193929E0,-1.276179504E1,-5.446430683E0,-4.460463047E0,1.457472986E1
9.484219915E0,-1.254779720E1,-5.091867447E0,-3.731400728E0,1.404626926E1
9.492245900E0,-1.221283054E1,-4.735125065E0,-2.917219639E0,1.341956816E1
9.500302403E0,-1.185607815E1,-4.349678516E0,-2.097429752E0,1.280177737E1
9.508328389E0,-1.144610882E1,-3.940113068E0,-1.422660828E0,1.218859557E1
9.516354374E0,-1.108645344E1,-3.535112858E0,-9.198346138E-1,1.167272755E1
9.524410877E0,-1.082919788E1,-3.146460056E0,-7.398593426E-1,1.130128884E1
9.532436863E0,-1.061187744E1,-2.684438467E0,-7.279605865E-1,1.097032722E1
9.540462848E0,-1.050129318E1,-2.141002178E0,-9.304735661E-1,1.075764054E1
9.548519352E0,-1.068746758E1,-1.480006218E0,-1.339845300E0,1.087233034E1
9.556545337E0,-1.124026966E1,-9.379196167E-1,-1.856337667E0,1.143106928E1
9.564571323E0,-1.189365959E1,-5.352578163E-1,-2.343669653E0,1.213418423E1
9.572627825E0,-1.271409988E1,-1.194412708E-1,-2.805229902E0,1.302044227E1
9.580653810E0,-1.336644363E1,2.447795868E-1,-3.190595150E0,1.374414893E1
9.588679796E0,-1.373884678E1,5.481441021E-1,-3.371288061E0,1.415704616E1
9.596705781E0,-1.371982574E1,7.246618271E-1,-3.438846350E0,1.416278283E1
9.604762284E0,-1.322551632E1,7.954263687E-1,-3.197044373E0,1.362967636E1
9.612788270E0,-1.238940620E1,8.055629730E-1,-2.622827530E0,1.268958400E1
9.620814255E0,-1.130406761E1,8.990130424E-1,-1.933583260E0,1.150343050E1
9.628870759E0,-1.017052364E1,1.081962585E0,-1.132695436E0,1.029044184E1
9.636896744E0,-8.965517044E0,1.439159393E0,-3.408567905E-1,9.086685808E0
9.644922730E0,-7.904567242E0,1.920386076E0,2.361819744E-1,8.137926510E0
9.652979232E0,-6.525325298E0,2.605833054E0,6.680517197E-1,7.058082548E0
9.661005218E0,-4.814390659E0,3.575785875E0,1.050219297E0,6.088313610E0
9.669061720E0,-2.848290920E0,4.809866905E0,1.554694891E0,5.802125215E0
9.677087706E0,-9.338388443E-1,6.063960075E0,2.214820862E0,6.522966981E0
9.685113691E0,8.030471802E-1,7.165055275E0,3.118640184E0,7.855496068E0
9.693139677E0,3.050726891E0,8.151008606E0,5.120912075E0,1.009800061E1
9.701196180E0,5.506152153E0,8.528841019E0,8.361367226E0,1.315185548E1
9.709222166E0,7.635262489E0,8.570738792E0,1.203008080E1,1.662761681E1
9.717248151E0,1.006774998E1,9.068876266E0,1.545472717E1,2.055365414E1
9.725274137E0,1.284981251E1,1.015344906E1,1.845705605E1,2.467535465E1
9.733330640E0,1.728603745E1,1.163794708E1,2.125955963E1,2.976941011E1
9.741356625E0,2.224589539E1,1.256792736E1,2.303956795E1,3.440427809E1
9.749382611E0,2.656513596E1,1.260217094E1,2.393181419E1,3.791111831E1
9.757408596E0,2.936302567E1,1.189214516E1,2.378105545E1,3.961248529E1
9.765465098E0,3.031629562E1,1.076879311E1,2.293508911E1,3.951028977E1
9.773491084E0,2.979282379E1,8.972755432E0,2.110895538E1,3.759934423E1
9.781517070E0,2.761642838E1,7.088477612E0,1.843483353E1,3.395227118E1
9.789573573E0,2.440879822E1,5.286595345E0,1.555288506E1,2.942158654E1
9.797599558E0,2.060283089E1,3.789961576E0,1.274911976E1,2.452306066E1
9.805625544E0,1.676192093E1,2.683841944E0,1.043999386E1,1.992883520E1
9.813651529E0,1.370345879E1,1.672232151E0,8.088706017E0,1.600025963E1
9.821708032E0,1.055345440E1,1.042042732E0,6.306673050E0,1.233837014E1
9.829734018E0,8.077140808E0,7.383573055E-1,5.066133976E0,9.563006254E0
9.837760003E0,6.480266094E0,7.841191292E-1,4.225611687E0,7.775891305E0
9.845785989E0,5.604947567E0,9.956767559E-1,3.445879936E0,6.654389376E0
9.853842492E0,5.251463413E0,1.285575628E0,2.565300465E0,5.984257611E0
9.861868477E0,5.039295197E0,1.466963291E0,1.241529942E0,5.393317529E0
9.869894463E0,4.946152210E0,1.557398796E0,-2.450919151E-1,5.191337279E0
9.877920449E0,4.789326668E0,1.562792063E0,-1.649464607E0,5.301009569E0
9.885976951E0,4.399335861E0,1.515916586E0,-2.825484753E0,5.443851872E0
9.894002936E0,3.711393833E0,1.180573463E0,-3.634278774E0,5.326929706E0
9.902028923E0,2.811417103E0,5.840342045E-1,-4.576914787E0,5.403083476E0
9.910054908E0,1.684991360E0,-1.637880802E-1,-5.544920444E0,5.797599948E0
9.918111410E0,2.901806831E-1,-1.026568413E0,-6.542712688E0,6.629112826E0
9.926137396E0,-1.255078793E0,-1.924641848E0,-7.374909401E0,7.724555501E0
9.934163381E0,-2.661897182E0,-2.626809120E0,-7.948034286E0,8.783909823E0
9.942189367E0,-4.181121349E0,-3.306173801E0,-8.422432899E0,9.967443849E0
9.950245870E0,-5.594485283E0,-3.773790836E0,-8.557332993E0,1.089805996E1
9.958271856E0,-6.784230232E0,-4.078034401E0,-8.421459198E0,1.155755681E1
9.966297841E0,-7.779479980E0,-4.290321350E0,-8.080219269E0,1.200904282E1
9.974323827E0,-8.363494873E0,-4.433924675E0,-7.723216534E0,1.221702943E1
9.982380330E0,-8.749451637E0,-4.658950806E0,-7.200544357E0,1.225179846E1
9.990406315E0,-9.006601334E0,-4.864392757E0,-6.678395271E0,1.222219898E1
9.998432301E0,-9.071943283E0,-5.159767628E0,-6.190515995E0,1.213448990E1
1.000645829E1,-8.843771935E0,-5.392007828E0,-5.748249054E0,1.184602961E1
1.001451479E1,-8.590050697E0,-5.569134712E0,-5.473548412E0,1.160878825E1
1.002254078E1,-8.413081169E0,-5.717207909E0,-5.320393085E0,1.147924142E1
1.003056676E1,-8.162376404E0,-5.693571091E0,-5.265931606E0,1.125927067E1
1.003859275E1,-7.737720013E0,-5.545765877E0,-5.265255928E0,1.087891310E1
1.004664925E1,-7.249776363E0,-5.241522312E0,-5.351926804E0,1.042477501E1
1.005467523E1,-7.100900650E0,-4.949850559E0,-5.426881313E0,1.021640110E1
1.006270122E1,-7.193367958E0,-4.664636135E0,-5.516277790E0,1.019473852E1
1.007072720E1,-7.420752525E0,-4.305873871E0,-5.373415947E0,1.012332538E1
1.007875319E1,-7.894939423E0,-4.052057743E0,-5.139692783E0,1.025503205E1
1.008680969E1,-8.582830429E0,-4.035104752E0,-4.919331551E0,1.068395392E1
1.009483568E1,-9.240678787E0,-4.216706276E0,-4.738867283E0,1.120837274E1
1.010286166E1,-1.012268829E1,-4.629186153E0,-4.607734680E0,1.204696649E1
1.011088765E1,-1.112443161E1,-5.044159412E0,-4.307079792E0,1.295173576E1
1.011894415E1,-1.192028046E1,-5.382101536E0,-3.901799202E0,1.364859480E1
1.012697014E1,-1.259183121E1,-5.547198296E0,-3.415685177E0,1.417718333E1
1.013499612E1,-1.321943855E1,-5.712371826E0,-3.142145634E0,1.473966847E1
1.014302211E1,-1.386227798E1,-5.971357346E0,-3.035322905E0,1.539587752E1
1.015107861E1,-1.435781097E1,-6.153957367E0,-3.148654938E0,1.593524255E1
1.015910460E1,-1.483734322E1,-6.062602520E0,-3.678450108E0,1.644484412E1
1.016713058E1,-1.516681099E1,-5.694666862E0,-4.585363388E0,1.683707052E1
1.017515657E1,-1.534379768E1,-5.325037956E0,-5.532280922E0,1.715792204E1
1.018318256E1,-1.549865341E1,-4.908055305E0,-6.616195202E0,1.755196010E1
1.019123906E1,-1.543779945E1,-4.480738163E0,-7.495278358E0,1.773645579E1
1.019926504E1,-1.500778008E1,-3.945882320E0,-8.100014687E0,1.750467617E1
1.020729103E1,-1.430867290E1,-3.323390007E0,-8.248455048E0,1.684695973E1
1.021531702E1,-1.351277733E1,-2.758380413E0,-7.958025932E0,1.592275072E1
1.022337352E1,-1.256577301E1,-2.192164660E0,-6.884340286E0,1.449477073E1
1.023139950E1,-1.151705742E1,-1.596049786E0,-5.399168015E0,1.281955544E1
1.023942549E1,-1.022066593E1,-7.370774746E-1,-3.702922821E0,1.089573002E1
1.024745147E1,-8.666577339E0,3.588838577E-1,-1.954891443E0,8.891566845E0
1.025547746E1,-6.960978031E0,2.103002071E0,-2.355909348E-1,7.275529943E0
1.026353396E1,-4.254906178E0,5.313019753E0,2.076012611E0,7.116335703E0
1.027155995E1,-1.066858768E0,9.633371353E0,5.217057705E0,1.100716686E1
1.027958593E1,2.567938805E0,1.386035156E1,9.578149796E0,1.704243553E1
1.028761192E1,7.189307213E0,1.711821175E1,1.482943249E1,2.376197339E1
1.029563790E1,1.163943100E1,1.885861588E1,1.933652878E1,2.941130891E1
1.030369441E1,1.667358017E1,1.932494545E1,2.407103729E1,3.508385139E1
1.031172039E1,2.117657852E1,1.893492699E1,2.797235680E1,3.986767717E1
1.031974638E1,2.490749550E1,1.857005692E1,3.141105843E1,4.418014189E1
1.032777236E1,2.785856819E1,1.771309280E1,3.366624451E1,4.715155880E1
1.033579835E1,2.964677811E1,1.632982826E1,3.399502563E1,4.797141348E1
1.034385485E1,3.073999596E1,1.435428905E1,3.247882462E1,4.696665854E1
1.035188084E1,3.015381813E1,1.249338531E1,2.955279350E1,4.403072823E1
1.035990682E1,2.820981026E1,1.080806541E1,2.606875229E1,3.990222448E1
1.036793281E1,2.525391006E1,9.113377571E0,2.246955490E1,3.500992033E1
1.037598931E1,2.208309937E1,7.485724449E0,1.946352386E1,3.037314783E1
1.038401530E1,1.803545380E1,5.393235207E0,1.590893745E1,2.464668072E1
1.039204128E1,1.371876335E1,3.132916451E0,1.218097305E1,1.861170970E1
1.040006727E1,8.896070480E0,8.040609360E-1,8.674365997E0,1.245115294E1
1.040809326E1,4.359089851E0,-1.508209109E0,5.424149513E0,7.120235740E0
1.041614976E1,1.167084694E0,-3.367733240E0,2.647938728E0,4.440190691E0
1.042417574E1,-1.312148571E0,-5.287633419E0,-7.240972519E-1,5.495918292E0
1.043220173E1,-2.631971121E0,-6.808315277E0,-4.455907345E0,8.551931896E0
1.044022771E1,-3.696168661E0,-7.859859943E0,-8.383334160E0,1.207142712E1
1.044828422E1,-5.143054008E0,-8.633280754E0,-1.194886398E1,1.561281178E1
1.045631020E1,-7.002138615E0,-8.892923355E0,-1.419009972E1,1.815139006E1
1.046433619E1,-8.791042328E0,-8.903497696E0,-1.630582809E1,2.055321693E1
1.047236217E1,-1.019920731E1,-9.119787216E0,-1.792078018E1,2.254658978E1
1.048041868E1,-1.168279266E1,-9.263450623E0,-1.915752029E1,2.427570278E1
1.048844466E1,-1.320928764E1,-9.199938774E0,-1.894028664E1,2.485676188E1
1.049647065E1,-1.440495205E1,-8.784344673E0,-1.751988220E1,2.432310891E1
1.050449663E1,-1.556606960E1,-8.137461662E0,-1.477956390E1,2.295552906E1
1.051255314E1,-1.634962845E1,-7.583604813E0,-1.155132198E1,2.140687861E1
1.052057912E1,-1.662555504E1,-7.187945366E0,-8.447503090E0,1.998589371E1
1.052860511E1,-1.775886154E1,-6.406602859E0,-3.063789129E0,1.912612160E1
1.053663109E1,-1.758120728E1,-5.840089798E0,-2.395421028E0,1.868003051E1
1.054468759E1,-1.679140472E1,-6.079856873E0,-9.249064922E-1,1.788215267E1
1.055271358E1,-1.611192131E1,-6.545138359E0,-6.376194954E-2,1.739071333E1
1.056073956E1,-1.522534943E1,-6.641346931E0,-4.697990417E-2,1.661086877E1
1.056879607E1,-1.493978405E1,-6.393924713E0,-1.245446205E-1,1.625099788E1
1.057682205E1,-1.483186817E1,-5.897494316E0,-2.359821796E-1,1.596309620E1
1.058484804E1,-1.414838409E1,-5.113357544E0,-4.787614346E-1,1.505165806E1
1.059287402E1,-1.265901470E1,-4.169768333E0,-8.448433876E-1,1.335482615E1
1.060090001E1,-1.054807472E1,-3.078400135E0,-9.958534241E-1,1.103313880E1
1.060895651E1,-8.065656662E0,-1.884444714E0,-9.270470142E-1,8.334588498E0
1.061698250E1,-5.753150940E0,-9.168732166E-1,-7.516360283E-1,5.874041109E0
1.062500848E1,-4.335651875E0,-2.250642776E-1,-7.586333752E-1,4.407273046E0
1.063303447E1,-3.302226067E0,2.845144272E-2,-9.446399212E-1,3.434800003E0
1.064109097E1,-2.633524895E0,-4.026532173E-2,-1.167171717E0,2.880861761E0
1.064911696E1,-2.482811451E0,-2.903144360E-1,-1.382097244E0,2.856366217E0
1.065714294E1,-2.750666618E0,-5.778768063E-1,-1.348505497E0,3.117462995E0
1.066516893E1,-2.975820065E0,-8.750293255E-1,-1.215817213E0,3.331575134E0
1.067322543E1,-3.253386974E0,-1.364520073E0,-8.526141644E-1,3.629516875E0
1.068125142E1,-3.281382561E0,-1.822049141E0,-2.767729759E-1,3.763500746E0
1.068927740E1,-2.608561039E0,-1.945487022E0,6.190505028E-1,3.312511732E0
1.069730339E1,-1.636075974E0,-1.844811320E0,1.451291084E0,2.861174446E0
1.070535989E1,-4.009037018E-1,-1.843293309E0,1.889229774E0,2.669764623E0
1.071338588E1,1.332430363E0,-1.782839417E0,1.993467331E0,2.987942278E0
1.072141186E1,2.967045307E0,-1.872985363E0,1.503394604E0,3.817280100E0
1.072943785E1,3.981226921E0,-1.822037101E0,8.345193863E-1,4.457175069E0
1.073746383E1,4.620369911E0,-1.402390838E0,3.690929413E-1,4.842597214E0
1.074552034E1,5.303400517E0,-8.229670525E-1,2.823791504E-1,5.374297144E0
1.075354632E1,6.406749249E0,-1.820764542E-1,3.760952950E-1,6.420361005E0
1.076157231E1,8.052760124E0,1.030213833E-1,6.216950417E-1,8.077379758E0
1.076959829E1,9.987275124E0,3.065285683E-1,1.306436539E0,1.007702340E1
1.077762428E1,1.189395428E1,6.195728779E-1,2.197291374E0,1.211107379E1
1.078568078E1,1.327037907E1,1.088674068E0,3.056633949E0,1.366130239E1
1.079370677E1,1.448980141E1,1.805189133E0,4.137840271E0,1.517678407E1
1.080173275E1,1.516066170E1,2.506853104E0,4.888333321E0,1.612531483E1
1.080975874E1,1.519632816E1,3.206523180E0,5.144641876E0,1.636085330E1
1.081781524E1,1.499943924E1,3.992837906E0,5.267380714E0,1.639119372E1
1.082584123E1,1.474976540E1,4.802098274E0,5.765066624E0,1.654846580E1
1.083386721E1,1.464900494E1,5.680302143E0,7.141410351E0,1.725858974E1
1.084189320E1,1.486230278E1,6.471481323E0,9.335510254E0,1.870614514E1
1.084994970E1,1.534027195E1,6.902941704E0,1.203343964E1,2.068280003E1
1.085797569E1,1.623139381E1,7.174202442E0,1.458006477E1,2.296749039E1
1.086600167E1,1.695233345E1,7.317863464E0,1.599254990E1,2.442732870E1
1.087402766E1,1.730331993E1,7.328471184E0,1.627189255E1,2.485730994E1
1.088205364E1,1.679314995E1,7.457231998E0,1.511005783E1,2.378936825E1
1.089007963E1,1.495430565E1,7.778423786E0,1.267794800E1,2.109183490E1
1.089813613E1,1.203388596E1,7.946342945E0,9.968711853E0,1.753094388E1
1.090616212E1,9.434639931E0,7.788102150E0,7.703402042E0,1.445715632E1
1.091418810E1,6.404467583E0,7.189829350E0,5.328073978E0,1.100450923E1
1.092221409E1,3.686577320E0,6.360005856E0,3.246469975E0,8.036174097E0
1.093027059E1,1.443603039E0,5.477230072E0,1.400048733E0,5.834738679E0
1.093829658E1,-4.668045044E-1,4.358574867E0,-1.960792542E-1,4.387884273E0
1.094632256E1,-1.872782707E0,3.238916874E0,-1.423197746E0,4.002922609E0
1.095434855E1,-3.455288410E0,1.921938896E0,-2.774523258E0,4.830201489E0
1.096240505E1,-4.982788563E0,4.727721214E-1,-4.048236370E0,6.437384022E0
1.097043104E1,-6.391481400E0,-1.004146099E0,-5.223044395E0,8.315018739E0
1.097845702E1,-7.956286907E0,-2.303781986E0,-6.238492012E0,1.036960440E1
1.098648301E1,-9.302440643E0,-3.212132454E0,-7.104494095E0,1.213783478E1
1.099453951E1,-1.067462254E1,-4.049792290E0,-8.166299820E0,1.403698104E1
1.100256550E1,-1.167656517E1,-4.499295235E0,-9.178346634E0,1.551863005E1
1.101059148E1,-1.241939735E1,-4.739615440E0,-9.942101479E0,1.659972189E1
1.101864798E1,-1.310340118E1,-4.913613319E0,-1.053336334E1,1.751554914E1
1.102667397E1,-1.356608582E1,-5.098373413E0,-1.107821083E1,1.824167895E1
1.103469996E1,-1.401083851E1,-5.409556389E0,-1.166544056E1,1.901708178E1
1.104272594E1,-1.422783279E1,-5.652697563E0,-1.201446915E1,1.946102990E1
1.105078244E1,-1.436946583E1,-5.803271294E0,-1.211217499E1,1.966886598E1
1.105880843E1,-1.481347656E1,-5.884011269E0,-1.211460209E1,2.002059590E1
1.106683442E1,-1.501691151E1,-5.752738953E0,-1.184844017E1,1.997466323E1
1.107486040E1,-1.503314590E1,-5.353051186E0,-1.132046127E1,1.956536420E1
1.108288639E1,-1.480889511E1,-5.000167847E0,-1.064776230E1,1.891242700E1
1.109094289E1,-1.446027851E1,-4.818000317E0,-9.937076569E0,1.819500680E1
1.109896887E1,-1.384401894E1,-4.754931450E0,-9.137020111E0,1.725547362E1
1.110699486E1,-1.334363174E1,-4.595518112E0,-8.495934486E0,1.647277140E1
1.111502085E1,-1.281623459E1,-4.293749809E0,-7.893487930E0,1.565245374E1
1.112304683E1,-1.244353485E1,-3.967007160E0,-7.372460842E0,1.499772930E1
1.113110333E1,-1.208181000E1,-3.586094856E0,-6.900414467E0,1.436822637E1
1.113912932E1,-1.165661335E1,-3.224641800E0,-6.451154232E0,1.370738270E1
1.114715530E1,-1.109787941E1,-2.798781157E0,-6.057366371E0,1.294943206E1
1.115518129E1,-1.027024078E1,-2.358677387E0,-5.542737007E0,1.190643264E1
1.116320728E1,-9.311571121E0,-1.944725633E0,-5.044642925E0,1.076734586E1
1.117126378E1,-8.297856331E0,-1.507431746E0,-4.634836674E0,9.623330045E0
1.117928976E1,-7.366333008E0,-1.103518486E0,-4.308728218E0,8.604984247E0
1.118731575E1,-6.578786850E0,-6.681815386E-1,-4.075051785E0,7.767428792E0
1.119534174E1,-5.715375900E0,-9.776461124E-2,-3.708900690E0,6.814031401E0
1.120336772E1,-4.502457142E0,6.310045719E-1,-3.332546473E0,5.637034067E0
1.121142422E1,-2.696896076E0,1.542448878E0,-2.810597897E0,4.189493707E0
1.121945021E1,-5.838251114E-1,2.487431526E0,-1.911096334E0,3.190682773E0
1.122747620E1,1.324015617E0,3.380900145E0,-7.195544243E-1,3.701521540E0
1.123550218E1,3.659605026E0,4.402245998E0,1.173075199E0,5.843678995E0
1.124352817E1,6.200344086E0,5.112971783E0,3.407811642E0,8.729256980E0
1.125158467E1,9.177789688E0,5.518488407E0,6.233798504E0,1.239135915E1
1.125961065E1,1.271993637E1,5.752760887E0,9.148563385E0,1.669093320E1
1.126763664E1,1.597129536E1,6.028337955E0,1.096078300E1,2.028698839E1
1.127566263E1,2.012088203E1,6.663064003E0,1.238902283E1,2.455064566E1
1.128368861E1,2.444386482E1,7.940337658E0,1.375884533E1,2.915231233E1
1.129174511E1,2.813299561E1,9.170499802E0,1.522027206E1,3.327491833E1
1.129977110E1,3.073134232E1,9.579194069E0,1.615613556E1,3.601662221E1
1.130779708E1,3.202454376E1,9.273436546E0,1.617963600E1,3.705871894E1
1.131582307E1,3.264202881E1,8.531056404E0,1.518306351E1,3.699738350E1
1.132387957E1,3.184846497E1,7.553070068E0,1.335905457E1,3.535304693E1
1.133190556E1,2.925554276E1,6.861145973E0,1.094809341E1,3.198160183E1
1.133993154E1,2.553620911E1,5.990970135E0,8.525438309E0,2.758029726E1
1.134795753E1,2.125849915E1,5.098375320E0,6.966344833E0,2.294443674E1
1.135601403E1,1.771165466E1,3.995832920E0,6.093269825E0,1.915195365E1
1.136404002E1,1.412496758E1,2.862188101E0,6.287348747E0,1.572379038E1
1.137206600E1,1.127294636E1,1.863483906E0,7.139314651E0,1.347299913E1
1.138009199E1,9.251318932E0,1.225990891E0,8.101781845E0,1.235835040E1
1.138814849E1,8.023838043E0,1.028730631E0,8.796195984E0,1.195045302E1
1.139617448E1,7.242299557E0,9.093800783E-1,8.823676109E0,1.145142502E1
1.140420046E1,6.504805565E0,7.399187088E-1,8.152811050E0,1.045601756E1
1.141222645E1,5.805139065E0,4.960230589E-1,6.660634995E0,8.849278895E0
1.142028295E1,4.616138935E0,4.371153116E-1,4.618235588E0,6.544303508E0
1.142830894E1,3.232180119E0,5.761237144E-1,2.299283504E0,4.008193045E0
1.143633492E1,2.180220604E0,7.748023272E-1,3.760123253E-1,2.344155668E0
1.144439143E1,9.309029579E-1,6.659150124E-1,-1.757228374E0,2.097111032E0
1.145241741E1,-3.911185265E-1,2.391824722E-1,-3.666421890E0,3.694973807E0
1.146044340E1,-1.839238644E0,-4.409333467E-1,-5.138999462E0,5.475996391E0
1.146846938E1,-3.292356491E0,-1.024336576E0,-6.066031456E0,6.977507744E0
1.147652589E1,-4.632372856E0,-1.535514355E0,-6.536000252E0,8.156959109E0
1.148455187E1,-6.018371105E0,-2.055142879E0,-6.929706573E0,9.405596005E0
1.149257786E1,-7.181658268E0,-2.695957899E0,-7.211276054E0,1.052838576E1
1.150060384E1,-8.001563072E0,-3.488468170E0,-7.478903770E0,1.149471284E1
1.150866035E1,-8.673656464E0,-4.355585575E0,-7.690910339E0,1.238359980E1
1.151668633E1,-9.332215309E0,-5.151330948E0,-7.804206848E0,1.321105967E1
1.152471232E1,-9.779099464E0,-5.528013229E0,-8.095581055E0,1.384659342E1
1.153273830E1,-1.003273201E1,-5.682285309E0,-8.465664864E0,1.430424970E1
1.154079480E1,-1.024390030E1,-5.839970589E0,-8.780133247E0,1.470147917E1
1.154882079E1,-1.041894817E1,-5.959265709E0,-8.903857231E0,1.494476505E1
1.155684678E1,-1.058284092E1,-5.947492123E0,-8.894205093E0,1.504912186E1
1.156490328E1,-1.078985977E1,-5.765436172E0,-8.724086761E0,1.502567862E1
1.157292926E1,-1.095191288E1,-5.425086975E0,-8.449734688E0,1.485846495E1
1.158095525E1,-1.097451210E1,-5.016693115E0,-8.020605087E0,1.448921087E1
1.158898124E1,-1.077625656E1,-4.705784798E0,-7.452331543E0,1.392154307E1
1.159703774E1,-1.070651531E1,-4.531057358E0,-6.945701599E0,1.354262610E1
1.160506372E1,-1.073862457E1,-4.393922329E0,-6.421633244E0,1.326129649E1
1.161308971E1,-1.097086811E1,-4.305024624E0,-6.107336044E0,1.327376125E1
1.162114621E1,-1.146568298E1,-4.248502731E0,-5.995540619E0,1.361830272E1
1.162917220E1,-1.225777245E1,-4.250925064E0,-6.198589325E0,1.437865984E1
1.163719818E1,-1.307815266E1,-4.237465858E0,-6.512562275E0,1.521208931E1
1.164525469E1,-1.406725788E1,-4.112329483E0,-7.172887802E0,1.631714796E1
1.165328067E1,-1.500243187E1,-3.843364239E0,-7.981390953E0,1.742260062E1
1.166130666E1,-1.566022873E1,-3.322102070E0,-8.502063751E0,1.812634034E1
1.166933264E1,-1.611683846E1,-2.469545603E0,-8.549524307E0,1.841047265E1
1.167738915E1,-1.650634575E1,-1.467993617E0,-7.718523979E0,1.828086616E1
1.168541513E1,-1.709540176E1,-3.565399647E-1,-5.567888260E0,1.798280462E1
1.169344112E1,-1.790145302E1,5.130926371E-1,-3.840125084E0,1.831589050E1
1.170146710E1,-1.832956886E1,9.010683298E-1,-3.578950644E0,1.869743048E1
1.170952360E1,-1.860244942E1,7.086127996E-1,-4.947870255E0,1.926226042E1
1.171754959E1,-1.838011169E1,5.994343758E-1,-6.800348282E0,1.960695194E1
1.172557558E1,-1.695444107E1,1.141494751E0,-8.765028000E0,1.912019346E1
1.173360156E1,-1.460812187E1,1.986647844E0,-9.061908722E0,1.730497570E1
1.174165806E1,-1.076660538E1,3.117109776E0,-7.792201042E0,1.365117437E1
1.174968405E1,-5.421236992E0,4.726071358E0,-4.527011871E0,8.498199661E0
1.175771004E1,-4.929366112E-1,5.901330948E0,-2.373933792E-1,5.926638936E0
1.176573602E1,5.071270943E0,6.501328945E0,5.868633747E0,1.012056960E1
1.177376201E1,1.000531197E1,6.114474773E0,1.161598969E1,1.650528054E1
1.178181851E1,1.381833553E1,5.119836807E0,1.562684822E1,2.147923442E1
1.178984449E1,1.577240562E1,4.168596268E0,1.713000679E1,2.365550901E1
1.179787048E1,1.633218384E1,3.929706812E0,1.648635864E1,2.353684018E1
1.180589646E1,1.623857880E1,4.098959446E0,1.387545013E1,2.174904656E1
1.181395297E1,1.585640335E1,4.981183052E0,1.117530060E1,2.002810663E1
1.182197895E1,1.564121437E1,6.238182068E0,1.023960114E1,1.970816922E1
1.183000494E1,1.634203720E1,6.491521358E0,1.099443245E1,2.073835997E1
1.183803092E1,1.813842010E1,5.489580154E0,1.246294022E1,2.268176918E1
1.184605691E1,2.108101082E1,4.328803062E0,1.533231258E1,2.642399217E1
1.185411341E1,2.384284973E1,3.485336542E0,1.845343399E1,3.035058945E1
1.186213940E1,2.585419846E1,2.709164381E0,2.049177933E1,3.310124121E1
1.187016538E1,2.641162872E1,2.001204252E0,2.047710419E1,3.347970648E1
1.187819137E1,2.550142288E1,1.537834167E0,1.846927071E1,3.152461678E1
1.188621736E1,2.330283737E1,1.312538981E0,1.433256054E1,2.738918180E1
1.189427386E1,2.067753410E1,1.432939291E0,9.661580086E0,2.286831567E1
1.190229984E1,1.830089760E1,1.943914294E0,5.835072994E0,1.930672765E1
1.191032583E1,1.653254318E1,2.956228733E0,3.879972458E0,1.723712443E1
1.191835182E1,1.563049698E1,3.638509512E0,3.536148548E0,1.643336648E1
1.192640832E1,1.507881927E1,3.964168787E0,4.225464344E0,1.615363655E1
1.193443430E1,1.481799603E1,3.694306135E0,5.463517666E0,1.621946144E1
1.194246029E1,1.446226692E1,2.869865894E0,6.268995762E0,1.602166042E1
1.195048627E1,1.346410656E1,1.880150795E0,6.301732540E0,1.498429062E1
1.195854278E1,1.200536156E1,1.366601944E0,6.051895618E0,1.351376141E1
1.196656876E1,1.059966946E1,1.090243101E0,5.438410759E0,1.196319080E1
1.197459475E1,8.998197556E0,7.579240799E-1,4.432947159E0,1.005947457E1
1.198262073E1,7.079498768E0,1.729147434E-1,2.854126930E0,7.635132143E0
1.199067724E1,4.927511215E0,-3.793883324E-1,8.824081421E-1,5.020253620E0
1.199870322E1,2.472298145E0,-8.942722082E-1,-1.284790516E0,2.926203611E0
1.200672921E1,2.965540886E-1,-1.375416756E0,-3.130853653E0,3.432486005E0
1.201475519E1,-2.015256405E0,-1.897748947E0,-5.111338615E0,5.812786929E0
1.202278118E1,-3.874918938E0,-2.522969484E0,-6.688680649E0,8.131348019E0
1.203083768E1,-5.377066612E0,-3.261494160E0,-7.815408230E0,1.003149018E1
1.203886367E1,-6.520547867E0,-3.900055885E0,-8.488193512E0,1.139198883E1
1.204688965E1,-7.291842937E0,-4.564063072E0,-8.671571732E0,1.221465519E1
1.205491564E1,-7.722115517E0,-5.056464672E0,-8.998718262E0,1.289092058E1
1.206294162E1,-8.048969269E0,-5.558782578E0,-9.147962570E0,1.339295297E1
1.207099813E1,-8.419132233E0,-5.950968266E0,-9.128907204E0,1.377072103E1
1.207902411E1,-8.732161522E0,-6.131846905E0,-8.958657265E0,1.393225507E1
1.208705010E1,-8.977337837E0,-6.221116066E0,-8.647127151E0,1.393081791E1
1.209507608E1,-9.024459839E0,-6.122242928E0,-8.153038979E0,1.361597512E1
1.210313259E1,-8.649223328E0,-6.055556297E0,-7.773621082E0,1.311136953E1
1.211115857E1,-7.989475727E0,-6.145909786E0,-7.427640438E0,1.252093335E1
1.211918456E1,-7.067846775E0,-6.402989388E0,-6.979381084E0,1.181797324E1
1.212721054E1,-6.271573067E0,-6.862009048E0,-6.366731167E0,1.126743372E1
1.213526705E1,-5.613679886E0,-7.443337440E0,-5.632003784E0,1.089202188E1
1.214329303E1,-5.263144970E0,-7.955862999E0,-5.111009121E0,1.082214698E1
1.215131902E1,-5.358105183E0,-8.530378342E0,-4.851904869E0,1.118112815E1
1.215934500E1,-5.513269424E0,-9.110118866E0,-4.815140247E0,1.168657268E1
1.216740150E1,-5.634333611E0,-9.475005150E0,-4.927039146E0,1.207464917E1
1.217542749E1,-5.751019478E0,-9.788789749E0,-5.411997795E0,1.257713600E1
1.218345348E1,-5.689695358E0,-9.551085472E0,-5.881928444E0,1.257747785E1
1.219147946E1,-5.302824497E0,-8.597814560E0,-6.249868870E0,1.187868780E1
1.219953596E1,-5.072291374E0,-7.699234962E0,-6.653400421E0,1.136987669E1
1.220756195E1,-5.376315117E0,-7.185005188E0,-7.031270027E0,1.140034306E1
1.221558794E1,-6.901628494E0,-7.199438095E0,-7.508644104E0,1.248375428E1
1.222364444E1,-9.394852638E0,-7.821618557E0,-7.958317757E0,1.458683634E1
1.223167042E1,-1.302031517E1,-9.015383720E0,-7.511349678E0,1.752786709E1
1.223969641E1,-1.820174026E1,-9.716182709E0,-5.537551880E0,2.136286582E1
1.224772240E1,-2.216246986E1,-9.334277153E0,-4.138849735E0,2.440151384E1
1.225574838E1,-2.657598495E1,-7.902408600E0,-1.653462887E0,2.777525837E1
1.226380488E1,-2.918240166E1,-5.665248871E0,4.627192020E-1,2.973082105E1
1.227183087E1,-2.962627029E1,-3.150320530E0,1.399207830E0,2.982613273E1
1.227985686E1,-2.816549683E1,-7.869232893E-1,1.859332800E0,2.823776865E1
1.228788284E1,-2.593767548E1,1.581755400E0,1.881452084E0,2.605388303E1
1.229593934E1,-2.286112595E1,4.095667362E0,1.625272274E0,2.328190457E1
1.230396533E1,-1.950028801E1,6.727953911E0,5.062961578E-1,2.063450828E1
1.231199132E1,-1.618370056E1,8.929193497E0,-7.251138687E-1,1.849779583E1
1.232001730E1,-1.295820045E1,1.079789352E1,-1.292440891E0,1.691685157E1
1.232807380E1,-9.923694611E0,1.194454956E1,-1.209162712E0,1.557607311E1
1.233609979E1,-5.852089882E0,1.287303734E1,-9.692525864E-2,1.414112587E1
1.234412577E1,-1.915857792E0,1.348592949E1,1.794916630E0,1.373908771E1
1.235215176E1,1.101377487E0,1.361502743E1,4.115922928E0,1.426614264E1
1.236020826E1,3.573972702E0,1.385197067E1,6.158197403E0,1.557477986E1
1.236823425E1,5.513519287E0,1.458858871E1,7.527049541E0,1.731710976E1
1.237626023E1,8.235233307E0,1.561758518E1,8.457988739E0,1.957717058E1
1.238428622E1,1.183090305E1,1.647975349E1,8.662697792E0,2.205889561E1
1.239234272E1,1.575986004E1,1.691692162E1,8.702460289E0,2.470401264E1
1.240036871E1,1.931442070E1,1.637931824E1,8.984095573E0,2.687085570E1
1.240839469E1,2.131973839E1,1.523753357E1,9.589603424E0,2.790473379E1
1.241642068E1,2.255004883E1,1.376223660E1,1.077560329E1,2.853099165E1
1.242447718E1,2.329401016E1,1.218134689E1,1.358238411E1,2.958846531E1
1.243250317E1,2.422178268E1,1.033670044E1,1.966740417E1,3.286866166E1
1.244052915E1,2.622274590E1,7.966803551E0,2.740568352E1,3.875788759E1
1.244855514E1,2.919069672E1,5.448825836E0,3.301084900E1,4.440160616E1
1.245661164E1,3.348039627E1,2.629992485E0,3.681363678E1,4.983068982E1
1.246463763E1,3.684813309E1,-3.645968437E-2,3.742002487E1,5.251708772E1
1.247266361E1,3.782587433E1,-2.862181902E0,3.457928848E1,5.132948515E1
1.248068960E1,3.524805069E1,-5.406083107E0,2.861725235E1,4.572305703E1
1.248874610E1,3.114138985E1,-6.793926239E0,2.206724548E1,3.876734345E1
1.249677208E1,2.579586220E1,-7.325102329E0,1.400153446E1,3.025105945E1
1.250479807E1,2.087733459E1,-7.113926888E0,6.590101242E0,2.301956754E1
1.251282406E1,1.662978745E1,-6.230098724E0,5.480794907E-1,1.776694548E1
1.252085004E1,1.308806610E1,-4.898948669E0,-4.078465462E0,1.455785193E1
1.252890654E1,1.059959030E1,-3.692295790E0,-7.042452812E0,1.325067939E1
1.253693253E1,8.246258736E0,-2.393918991E0,-9.623891830E0,1.289771008E1
1.254495852E1,6.224720955E0,-1.631319761E0,-1.117307758E1,1.289364253E1
1.255298450E1,4.166061878E0,-1.669983625E0,-1.190205002E1,1.272020878E1
1.256104101E1,2.873774529E0,-2.303300619E0,-1.215561199E1,1.270128642E1
1.256906699E1,1.546601772E0,-3.040615320E0,-1.186902046E1,1.234953300E1
1.257709298E1,-4.337811470E-1,-3.692480564E0,-1.115923309E1,1.176227283E1
1.258511896E1,-2.488919735E0,-4.087388992E0,-1.016406059E1,1.123430452E1
1.259317546E1,-4.403403759E0,-4.515324593E0,-8.959354401E0,1.095664876E1
1.260120145E1,-6.076464653E0,-5.110796452E0,-7.727401733E0,1.107954875E1
1.260922744E1,-7.227977753E0,-5.676295757E0,-6.691631317E0,1.136846188E1
1.261728394E1,-8.251794815E0,-6.242358208E0,-5.561627865E0,1.174695102E1
1.262530992E1,-9.031110764E0,-6.590214252E0,-4.738255024E0,1.214260871E1
1.263333591E1,-9.650396347E0,-6.834468842E0,-4.284594536E0,1.257767325E1
1.264136189E1,-1.004144287E1,-7.048430443E0,-4.103842735E0,1.293647834E1
1.264941840E1,-1.029500961E1,-7.193891525E0,-4.183373451E0,1.323782126E1
1.265744438E1,-1.050830269E1,-7.269515991E0,-4.413110733E0,1.351835177E1
1.266547037E1,-1.066626358E1,-7.248026848E0,-4.790870190E0,1.375701672E1
1.267349635E1,-1.077756214E1,-7.101059914E0,-5.162228107E0,1.390070130E1
1.268155286E1,-1.091947937E1,-6.878026009E0,-5.442603111E0,1.400586306E1
1.268957884E1,-1.118503475E1,-6.618453026E0,-5.671528816E0,1.418009739E1
1.269760483E1,-1.159840775E1,-6.418214798E0,-5.756174088E0,1.445164640E1
1.270563081E1,-1.217936134E1,-6.442156792E0,-5.488749504E0,1.483120352E1
1.271368732E1,-1.276593781E1,-6.704990387E0,-4.546524048E0,1.511942278E1
1.272171330E1,-1.300747108E1,-7.121868134E0,-3.262661457E0,1.518421119E1
1.272973929E1,-1.329623985E1,-7.621903419E0,-1.362779140E0,1.538637621E1
1.273779579E1,-1.374533749E1,-7.629915237E0,9.553980827E-1,1.575000618E1
1.274582178E1,-1.339049816E1,-7.666608334E0,1.322849751E0,1.548651852E1
1.275384776E1,-1.292143250E1,-7.845051765E0,2.113810778E0,1.526356613E1
1.276187375E1,-1.223293114E1,-7.651722908E0,2.247038126E0,1.460283014E1
1.276993025E1,-1.168987083E1,-6.998930931E0,1.855283976E0,1.375064336E1
1.277795624E1,-1.181195736E1,-6.356741905E0,1.337725878E0,1.348035663E1
1.278598222E1,-1.276143074E1,-5.894402504E0,7.253448963E-1,1.407566058E1
1.279400821E1,-1.409175014E1,-5.783830166E0,1.141521931E-1,1.523296243E1
1.280206471E1,-1.544738770E1,-5.677065849E0,-4.134843349E-1,1.646274074E1
1.281009070E1,-1.665269661E1,-5.427672386E0,-8.110017776E-1,1.753367206E1
1.281811668E1,-1.749532318E1,-4.840801239E0,-1.123344660E0,1.818740204E1
1.282614267E1,-1.791794395E1,-3.919304132E0,-1.363031745E0,1.839215909E1
1.283416865E1,-1.764680481E1,-2.623733521E0,-1.513106346E0,1.790483701E1
1.284222516E1,-1.701515388E1,-1.049388051E0,-1.836674094E0,1.714613801E1
1.285025114E1,-1.617221451E1,8.024280071E-1,-2.914735556E0,1.645235838E1
1.285827713E1,-1.542043591E1,2.222189665E0,-3.618630886E0,1.599445091E1
1.286630311E1,-1.439227104E1,3.995972157E0,-4.620510101E0,1.563503671E1
1.287432910E1,-1.365562057E1,5.384331703E0,-5.324731350E0,1.561472911E1
1.288238560E1,-1.316238499E1,5.958808899E0,-5.573075294E0,1.548595978E1
1.289041158E1,-1.245566940E1,5.645048618E0,-5.148120403E0,1.461209834E1
1.289843757E1,-1.136280251E1,4.824549675E0,-4.090742111E0,1.300475803E1
1.290646356E1,-9.481802940E0,3.236870050E0,-2.526911497E0,1.033282132E1
1.291448954E1,-7.265494347E0,2.254360199E0,-8.847932816E-1,7.658485957E0
1.292254604E1,-5.135922432E0,2.364153624E0,8.873252869E-1,5.723134434E0
1.293057203E1,-2.586815357E0,3.011012793E0,2.627031326E0,4.760158119E0
1.293859802E1,7.671976089E-2,3.782871962E0,3.836778641E0,5.388587620E0
1.294662400E1,3.524730206E0,4.578395367E0,4.172141075E0,7.126863848E0
1.295468050E1,6.686029911E0,5.157711506E0,3.681373119E0,9.211812633E0
1.296270649E1,8.923825264E0,5.215207577E0,3.168151855E0,1.081065371E1
1.297073248E1,1.058806610E1,5.101168633E0,3.416592121E0,1.223936955E1
1.297875846E1,1.254804039E1,4.978977203E0,3.978700161E0,1.407386182E1
1.298678445E1,1.557589531E1,4.873759270E0,4.574795723E0,1.694965486E1
1.299484095E1,1.934231186E1,4.642562866E0,5.084849358E0,2.053129589E1
1.300286694E1,2.291226578E1,4.363804817E0,6.191629887E0,2.413194970E1
1.301089292E1,2.563779831E1,4.109826088E0,7.878959656E0,2.713421047E1
1.301891891E1,2.751067924E1,3.407043934E0,9.563842773E0,2.932426486E1
1.302697541E1,2.837379074E1,2.388362646E0,1.208334732E1,3.093191814E1
1.303500139E1,2.786371994E1,1.898665428E0,1.467794037E1,3.155049529E1
1.304302738E1,2.649681282E1,1.627979040E0,1.707690811E1,3.156504706E1
1.305105337E1,2.420079422E1,8.560528755E-1,1.883200836E1,3.067663290E1
1.305910987E1,2.172103119E1,-5.210638046E-4,1.942162704E1,2.913765250E1
1.306713585E1,1.845201111E1,-6.694808006E-1,1.911547089E1,2.657679713E1
1.307516184E1,1.550309372E1,-7.174000144E-1,1.799022675E1,2.375939469E1
1.308318782E1,1.341478348E1,-1.638188958E-1,1.642056084E1,2.120419936E1
1.309124433E1,1.226861382E1,5.749820471E-1,1.444676018E1,1.896202439E1
1.309927031E1,1.190525055E1,1.179592371E0,1.245185184E1,1.726774575E1
1.310729630E1,1.192746162E1,2.035810471E0,1.005617523E1,1.573326175E1
1.311532228E1,1.186751080E1,3.037492275E0,7.986234665E0,1.462340986E1
1.312334827E1,1.139168549E1,3.963666201E0,6.216438293E0,1.356927607E1
1.313140477E1,1.091184902E1,4.909821987E0,4.676448822E0,1.284694417E1
1.313943076E1,1.035557079E1,5.566117287E0,3.574011803E0,1.228792368E1
1.314745674E1,9.577872276E0,6.123576164E0,2.554856300E0,1.165165710E1
1.315548273E1,8.471790314E0,6.395695686E0,1.873440266E0,1.077895787E1
1.316353923E1,7.100550175E0,6.325176716E0,1.586397648E0,9.640660287E0
1.317156522E1,5.558202744E0,6.012568474E0,1.808087349E0,8.385331076E0
1.317959120E1,4.293628693E0,5.663219452E0,2.370793343E0,7.491859781E0
1.318761719E1,3.006480694E0,5.129786015E0,3.162602425E0,6.734662932E0
1.319567369E1,1.789357185E0,4.482523918E0,3.713197708E0,6.089553106E0
1.320369968E1,6.618909836E-1,3.726111889E0,3.784784794E0,5.352252369E0
1.321172566E1,-2.927536964E-1,2.959067345E0,3.327135086E0,4.462242951E0
1.321975165E1,-1.074515343E0,2.310378551E0,2.629624367E0,3.661605738E0
1.322777763E1,-1.961180210E0,1.640645623E0,1.448962212E0,2.938951746E0
1.323583414E1,-2.829458475E0,1.024631023E0,5.431270599E-2,3.009759769E0
1.324386012E1,-3.602915764E0,4.932301044E-1,-1.427124023E0,3.906527987E0
1.325188611E1,-4.329996109E0,2.585482597E-2,-2.825526237E0,5.170409393E0
1.325991209E1,-4.905887604E0,-3.328365088E-1,-3.919652939E0,6.288258303E0
1.326796860E1,-5.490869522E0,-6.552487612E-1,-5.047041893E0,7.486763715E0
1.327599458E1,-6.075107574E0,-9.929853678E-1,-6.001280308E0,8.596994668E0
1.328402057E1,-6.754156590E0,-1.230796576E0,-6.584029198E0,9.512251675E0
1.329204655E1,-7.124262810E0,-1.662401199E0,-7.236032486E0,1.028974560E1
1.330007254E1,-7.534576416E0,-2.206045866E0,-7.810963631E0,1.107463918E1
1.330809852E1,-8.105061531E0,-2.899767160E0,-8.397638321E0,1.202584722E1
1.331615503E1,-8.794948578E0,-3.455466032E0,-8.758456230E0,1.288417330E1
1.332418101E1,-9.717332840E0,-3.839540005E0,-8.762550354E0,1.363638199E1
1.333220700E1,-1.072438049E1,-4.025120258E0,-8.357130051E0,1.417940594E1
1.334023298E1,-1.147513676E1,-4.029508114E0,-7.750048637E0,1.442147541E1
1.334828949E1,-1.208065510E1,-3.838745832E0,-6.905712605E0,1.443492514E1
