"Time (s)","Linear Acceleration x (m/s^2)","Linear Acceleration y (m/s^2)","Linear Acceleration z (m/s^2)","Absolute acceleration (m/s^2)"
1.032709700E-2,6.739274263E-1,6.944465637E-1,3.369920731E0,3.506108945E0
1.835310100E-2,1.318461537E0,5.202186108E-1,3.568281174E0,3.839478970E0
2.637910300E-2,1.916639805E0,3.757083416E-1,3.488264084E0,3.997830814E0
3.440510600E-2,2.323856354E0,2.764644623E-1,3.302943230E0,4.047984058E0
4.246162500E-2,2.258605480E0,8.687210083E-2,3.142178535E0,3.870675836E0
5.048762800E-2,1.855039239E0,-1.722719669E-1,3.232770920E0,3.731173546E0
5.851363100E-2,9.645835161E-1,-4.582648277E-1,3.518276215E0,3.676777874E0
6.653963400E-2,-9.095478058E-2,-7.406990528E-1,3.614124298E0,3.690366147E0
7.456563600E-2,-6.049029827E-1,-1.130982399E0,2.759407997E0,3.042919864E0
8.262215700E-2,-9.190616608E-1,-1.429854512E0,1.358430862E0,2.175888938E0
9.064816000E-2,-1.384779096E0,-1.502502441E0,4.827184677E-1,2.099558013E0
9.867416200E-2,-1.688189268E0,-1.360692024E0,1.094684601E-1,2.171047934E0
1.067001650E-1,-1.537408829E0,-1.235330224E0,-1.997280121E-2,1.972324918E0
1.147261680E-1,-1.071359754E0,-1.031636477E0,-1.834650040E-1,1.498580978E0
1.227826880E-1,-4.302762747E-1,-8.510594368E-1,-5.556945801E-1,1.103737425E0
1.308086910E-1,5.824029446E-2,-8.701167107E-1,-1.121634483E0,1.420759985E0
1.388346940E-1,8.805513382E-2,-7.382340431E-1,-1.557897091E0,1.726205826E0
1.468606970E-1,1.801543236E-1,-6.609597206E-1,-1.950098038E0,2.066931467E0
1.549172170E-1,1.439025402E-1,-6.565968990E-1,-2.470263004E0,2.560083346E0
1.629432200E-1,-1.194832325E-1,-6.829981804E-1,-2.889524460E0,2.971550834E0
1.709692220E-1,-3.284193277E-1,-6.730456352E-1,-3.106992722E0,3.195974570E0
1.789952250E-1,-4.218006730E-1,-6.902916431E-1,-3.301061630E0,3.398738920E0
1.870212280E-1,-4.713653922E-1,-6.950531006E-1,-3.429156780E0,3.530495768E0
1.950777470E-1,-6.471266747E-1,-6.828323603E-1,-3.398784637E0,3.526580493E0
2.031037510E-1,-7.677997947E-1,-5.602450371E-1,-3.308220387E0,3.442050719E0
2.111297540E-1,-6.058985591E-1,-4.987473488E-1,-3.328433990E0,3.419698058E0
2.191557570E-1,-1.882099509E-1,-3.068203926E-1,-3.525743961E0,3.544070008E0
2.271817590E-1,-1.955930591E-1,-2.015841007E-1,-3.527223587E0,3.538389327E0
2.352382790E-1,-1.291171312E-1,-1.337451935E-1,-3.669466496E0,3.674172474E0
2.432642810E-1,1.180658340E-1,-1.025824547E-1,-3.809478283E0,3.812687699E0
2.512902840E-1,2.729580402E-1,6.064963341E-2,-3.884081364E0,3.894133088E0
2.593162870E-1,2.429828644E-1,2.999162674E-2,-4.164971828E0,4.172161371E0
2.673728070E-1,-3.407585621E-2,-4.468202591E-2,-4.407299519E0,4.407657733E0
2.753988100E-1,-3.447116613E-1,-9.083318710E-2,-4.470011711E0,4.484203552E0
2.834248130E-1,-3.493247032E-1,-4.644870758E-3,-4.192650318E0,4.207180292E0
2.914508160E-1,-5.789464712E-1,-2.788543701E-2,-3.543402672E0,3.590495663E0
2.994768180E-1,-5.260640383E-2,4.650521278E-1,-2.792154312E0,2.831106960E0
3.075028210E-1,1.037478447E-3,5.452878475E-1,-2.218972206E0,2.284989620E0
3.155593420E-1,-2.499056458E-1,2.844064236E-1,-1.809762478E0,1.848940256E0
3.235853440E-1,-9.729677439E-2,1.778614521E-1,-1.525316238E0,1.538730316E0
3.316113470E-1,2.052667141E-1,4.023063183E-1,-1.245402336E0,1.324768575E0
3.396373500E-1,4.376550913E-1,5.543029308E-1,-1.151862144E0,1.351140303E0
3.476633530E-1,6.358814240E-1,5.172014236E-1,-1.015382767E0,1.304930903E0
3.557198730E-1,6.602407694E-1,2.536718845E-1,-9.466600418E-1,1.181707465E0
3.637458760E-1,9.474269152E-1,1.553349495E-1,-1.034262657E0,1.411186008E0
3.717718780E-1,1.092196584E0,2.479507923E-1,-1.460513115E0,1.840508498E0
3.797978810E-1,1.312528491E0,6.530587673E-1,-1.750113487E0,2.283005478E0
3.878238840E-1,1.331647754E0,1.137313128E0,-1.920726299E0,2.599222270E0
3.958804040E-1,1.153712273E0,1.353905201E0,-1.702291012E0,2.462093822E0
4.039064070E-1,8.557736874E-1,1.242143869E0,-1.114173889E0,1.875274234E0
4.119324100E-1,6.895596981E-1,6.438312531E-1,-4.618597031E-1,1.050393091E0
4.199584130E-1,8.494838476E-1,3.051259518E-1,5.793352127E-1,1.072545543E0
4.280149320E-1,1.362583518E0,3.367989063E-1,1.426250458E0,2.001064146E0
4.360409350E-1,2.123615503E0,-1.743245125E-2,1.912393570E0,2.857848117E0
4.440669380E-1,2.897775173E0,-1.096220016E-1,2.302781105E0,3.702960809E0
4.520929400E-1,4.143882751E0,-1.421382427E-1,2.553109169E0,4.869325823E0
4.601494610E-1,3.784818649E0,5.375497341E-1,3.002929688E0,4.861213700E0
4.681754630E-1,2.645690441E0,2.841992378E-1,3.126174927E0,4.105291316E0
4.762014660E-1,1.555532813E0,-3.442548513E-1,3.223476410E0,3.595691018E0
4.842274690E-1,9.130541086E-1,-7.956043482E-1,3.492086411E0,3.696122506E0
4.922839890E-1,4.205447435E-1,-1.397336721E0,4.317581177E0,4.557511932E0
5.003099920E-1,4.902230501E-1,-1.866616607E0,5.123985291E0,5.475381398E0
5.083359950E-1,4.696619511E-1,-2.217102051E0,6.050362587E0,6.460883166E0
5.163619980E-1,1.004657626E0,-2.513125658E0,6.641645432E0,7.171930811E0
5.244185180E-1,1.221448064E0,-2.428986311E0,6.697156906E0,7.227988690E0
5.324445210E-1,1.501589179E0,-2.375500441E0,6.185292244E0,6.793792207E0
5.404705230E-1,1.464684844E0,-2.231586456E0,4.937311172E0,5.612692885E0
5.484965260E-1,2.107864857E0,-2.156019688E0,3.622992516E0,4.713553852E0
5.565530460E-1,2.987463951E0,-2.690638542E0,2.065760612E0,4.520159680E0
5.645790480E-1,2.476834774E0,-2.331554413E0,3.626203537E-1,3.420869772E0
5.726050510E-1,1.819552064E0,-2.470867395E0,-1.202306747E0,3.295678521E0
5.806310540E-1,1.774300814E0,-3.011228085E0,-2.795413971E0,4.475486256E0
5.886570580E-1,2.140759945E0,-3.484044075E0,-3.959025860E0,5.691687098E0
5.967135770E-1,2.298836708E0,-3.413471222E0,-5.038748741E0,6.505799326E0
6.047395800E-1,2.374121189E0,-3.373894215E0,-5.884249687E0,7.186376554E0
6.127655830E-1,2.052122593E0,-3.454510689E0,-6.590636253E0,7.718894834E0
6.207915850E-1,2.137106657E0,-3.569310188E0,-7.163137436E0,8.283582438E0
6.288481060E-1,2.100425243E0,-3.545942783E0,-7.294502258E0,8.378261134E0
6.368741080E-1,1.634032726E0,-3.982110023E0,-7.419148445E0,8.577355469E0
6.449001110E-1,4.138727188E-1,-4.747305393E0,-7.512774944E0,8.896627816E0
6.529261140E-1,-1.057899237E0,-5.402216911E0,-7.752037525E0,9.507743378E0
6.609826340E-1,-2.170282841E0,-5.429670334E0,-8.224674225E0,1.009141782E1
6.690086370E-1,-2.689588547E0,-5.230545044E0,-8.780601501E0,1.056841761E1
6.770346400E-1,-2.851798773E0,-5.178392410E0,-9.751605988E0,1.140361011E1
6.850606430E-1,-3.197333574E0,-5.145063877E0,-1.067257786E1,1.227185978E1
6.931171620E-1,-3.326621532E0,-5.424870491E0,-1.117635345E1,1.286104612E1
7.011431660E-1,-3.593284845E0,-5.842082977E0,-1.100926685E1,1.297095163E1
7.091691680E-1,4.668340683E-1,-9.126214981E0,-1.003786659E1,1.357440605E1
7.171951710E-1,-1.522317410E0,-7.968854427E0,-8.554203033E0,1.178959205E1
7.252211740E-1,-4.948207378E0,-5.307786942E0,-5.633657455E0,9.186699886E0
7.332776930E-1,-6.986351490E0,-5.369208813E0,-3.584074259E0,9.512260442E0
7.413036960E-1,-8.977472305E0,-5.714513302E0,-1.734924078E0,1.078242240E1
7.493296990E-1,-9.525145531E0,-6.026751041E0,-5.526447296E-1,1.128519126E1
7.573557020E-1,-9.943031311E0,-6.142255783E0,-7.654285431E-2,1.168747349E1
7.654122220E-1,-9.509448051E0,-6.456445217E0,-5.015933514E-1,1.150508075E1
7.734382250E-1,-9.597667694E0,-5.923471451E0,-4.848630428E-1,1.128883658E1
7.814642280E-1,-9.816370010E0,-5.118077278E0,2.156319618E-1,1.107259375E1
7.894902300E-1,-9.054792404E0,-5.066363335E0,3.643054962E-1,1.038219733E1
7.975162330E-1,-7.652453423E0,-5.457574844E0,9.119498730E-1,9.443347878E0
8.055727530E-1,-5.987891674E0,-6.001401424E0,2.077475309E0,8.728549102E0
8.135987560E-1,-3.695014477E0,-6.128685951E0,3.898961782E0,8.149590570E0
8.216247590E-1,-8.404636383E-1,-5.678564548E0,6.185598850E0,8.438845158E0
8.296507620E-1,1.771999359E0,-5.220327377E0,8.181201935E0,9.865285842E0
8.376767640E-1,4.940247536E0,-4.606966972E0,1.015853119E1,1.219942402E1
8.457332850E-1,8.530614853E0,-3.519336700E0,1.177093506E1,1.495700614E1
8.537592880E-1,1.145991802E1,-3.027966499E0,1.278344250E1,1.743314958E1
8.617852900E-1,1.254216576E1,-3.349664450E0,1.293896198E1,1.832874548E1
8.698112930E-1,1.205512333E1,-3.288673639E0,1.250864124E1,1.768070922E1
8.778678120E-1,1.062366009E1,-2.837745428E0,1.121026516E1,1.570302511E1
8.858938150E-1,9.054847717E0,-2.991153479E0,9.323127747E0,1.333634048E1
8.939198190E-1,8.270685196E0,-2.738275290E0,7.074433327E0,1.122274441E1
9.019458220E-1,9.091474533E0,-1.608227968E0,4.912204742E0,1.045806205E1
9.099718250E-1,1.065611076E1,-2.235112190E-1,3.688057423E0,1.127849376E1
9.180283440E-1,1.321605682E1,7.692515850E-1,3.322412491E0,1.364896812E1
9.260543470E-1,1.553593063E1,1.242325306E0,3.408756971E0,1.595393797E1
9.340803490E-1,1.831359482E1,2.012337446E0,3.101456165E0,1.868304813E1
9.421368700E-1,2.025947952E1,2.963189602E0,2.022722721E0,2.057470317E1
9.501628730E-1,2.035119629E1,2.594283104E0,1.164976716E0,2.054893345E1
9.581888750E-1,1.848062515E1,1.056893110E0,7.985289097E-1,1.852803761E1
9.662453960E-1,1.403719711E1,1.014420271E0,1.290154338E0,1.413281463E1
9.742713980E-1,9.835353851E0,2.821648598E0,2.459732056E0,1.052360052E1
9.822974010E-1,6.224500656E0,3.224866867E0,1.636148095E0,7.198691223E0
9.903539200E-1,4.462860107E0,2.773084641E0,1.193905234E0,5.388184153E0
9.983799230E-1,4.317429543E0,2.532574892E0,8.378893137E-1,5.075055856E0
1.006405926E0,5.148789406E0,2.555398226E0,1.440342665E-1,5.749855503E0
1.014462446E0,5.372348785E0,2.413580894E0,-2.626056433E0,6.448540656E0
1.022488449E0,3.731746674E0,2.383978367E0,-1.083712578E1,1.170694585E1
1.030514452E0,2.013701439E0,2.269758940E0,-1.796588516E1,1.822031363E1
1.038570972E0,1.707265854E0,1.961492300E0,-1.630897903E1,1.651499337E1
1.046596975E0,3.163327217E0,8.256497383E-1,-9.199080467E0,9.762756681E0
1.054622978E0,4.213994026E0,3.546047211E-1,-4.550345421E0,6.212015262E0
1.062679498E0,5.640315056E0,1.482353210E0,-2.975015879E0,6.546849964E0
1.070705501E0,7.489164352E0,2.793836355E0,-3.327314854E0,8.658182743E0
1.078731504E0,1.004443169E1,3.405159235E0,-3.809369087E0,1.126929502E1
1.086788023E0,1.241039276E1,3.102200508E0,-4.276368618E0,1.348809939E1
1.094814026E0,1.569151402E1,2.716810226E0,-3.447882652E0,1.629394258E1
1.102840028E0,1.886217690E1,3.642210484E0,-1.214609027E0,1.924896593E1
1.110896549E0,1.708945084E1,3.865117073E0,-2.273597717E-1,1.752256124E1
1.118922552E0,1.058468819E1,2.547104597E0,-2.857354164E0,1.125556923E1
1.126948554E0,1.306096554E1,1.709509850E0,-3.391569138E0,1.360198463E1
1.135005075E0,2.800053024E1,5.307506084E0,7.744203091E0,2.953255824E1
1.143031077E0,1.906370926E1,8.211479187E0,1.065832520E1,2.333352303E1
1.151057080E0,1.134212017E1,7.030735016E0,8.177646637E0,1.565084117E1
1.159083083E0,4.175281525E-2,4.913060665E0,8.859459162E-1,4.992475194E0
1.167139602E0,-9.520757675E0,4.859715462E0,-5.419923306E0,1.198487504E1
1.175165606E0,-1.064493084E1,3.999387503E0,-2.765254498E0,1.170283237E1
1.183222125E0,-9.030615807E0,3.820531368E0,-1.472789526E0,9.915522718E0
1.191248128E0,-3.939708710E0,4.854357719E0,-1.315819621E0,6.388855520E0
1.199274131E0,1.872474670E0,6.314931393E0,-9.126257896E-2,6.587324855E0
1.207330651E0,8.302087784E-1,6.502015591E0,-2.932429314E-2,6.554869432E0
1.215356654E0,-1.717112541E0,5.066644669E0,1.034421921E0,5.448797334E0
1.223413174E0,-5.921884537E0,3.934283257E0,-2.250292540E0,7.457286217E0
1.231439177E0,-6.317961693E0,3.134477615E0,-2.270591259E0,7.409262753E0
1.239465180E0,-2.249469757E0,3.107801437E0,-1.766461134E-1,3.840540042E0
1.247521699E0,-1.391707420E0,5.015857220E0,4.659265280E-1,5.226161184E0
1.255547702E0,-2.396680832E0,5.875505447E0,8.610773087E-1,6.403678428E0
1.263604222E0,-5.525217056E-1,3.239586353E0,-8.705489039E-1,3.399714013E0
1.271630225E0,-3.283494473E0,5.551286221E0,-2.253829241E-1,6.453596836E0
1.279656228E0,-6.234336376E0,8.644879341E0,-1.559430838E0,1.077184819E1
1.287712748E0,-7.966421604E0,1.093826962E1,-4.502986431E0,1.426136397E1
1.295738751E0,-8.080393791E0,1.233708572E1,-5.052186966E0,1.558913215E1
1.303764754E0,-9.024805069E0,1.185544014E1,-5.098517895E0,1.574780785E1
1.311821273E0,-8.991613388E0,9.059332848E0,-4.478686333E0,1.352698245E1
1.319847276E0,-7.970950127E0,7.679626465E0,-2.778731823E0,1.141201381E1
1.327873279E0,-5.999225616E0,7.399573326E0,-9.675059319E-1,9.574991443E0
1.335929799E0,-5.711495399E0,6.701278687E0,7.811048031E-1,8.839595039E0
1.343986319E0,-5.026256561E0,5.070743084E0,1.596652031E0,7.316077375E0
1.352012322E0,-5.263387680E0,3.878476381E0,3.187852859E0,7.273804697E0
1.360038325E0,-5.716720581E0,1.619760990E0,1.941879988E0,6.251033335E0
1.368094844E0,-6.869955063E0,-6.572327614E-1,9.522604942E-1,6.966709232E0
1.376163244E0,-8.944468498E0,-1.521930695E0,-7.678940892E-1,9.105462706E0
1.384189251E0,-9.965826035E0,-2.636926651E0,-3.421908855E0,1.086188432E1
1.392245775E0,-9.811580658E0,-3.567926407E0,-3.823105812E0,1.111815416E1
1.400271781E0,-9.463886261E0,-3.934853077E0,-2.015180111E0,1.044553315E1
1.408297788E0,-1.022390079E1,-3.472914934E0,4.438806176E-1,1.080677175E1
1.416415346E0,-1.004942322E1,-4.111839294E0,3.547188044E-1,1.086388305E1
1.424441353E0,-4.914734840E0,-6.760216713E0,-1.934493303E0,8.578893454E0
1.432467359E0,6.527452469E-1,-6.631202698E0,-4.201417923E0,7.877235438E0
1.440523882E0,2.980051994E0,-6.073861122E0,-5.038025856E0,8.435295095E0
1.502508943E0,2.601720810E0,3.440314770E0,7.813825607E-1,4.383523194E0
1.510534934E0,2.876639843E0,3.342583179E0,1.644875526E0,4.706754146E0
1.518591442E0,3.194608212E0,3.186798334E0,2.759337425E0,5.289153833E0
1.526617433E0,3.505515575E0,3.024530411E0,3.777224541E0,5.975269775E0
1.534643425E0,3.306804180E0,2.724229813E0,4.041624069E0,5.889915710E0
1.542669416E0,2.827900410E0,2.366225958E0,3.333302498E0,4.970608771E0
1.550725924E0,2.339462280E0,2.184734106E0,2.539353371E0,4.085885757E0
1.558751916E0,1.964012146E0,2.216814756E0,1.745635986E0,3.437856363E0
1.566777907E0,1.855595589E0,2.347625017E0,1.378397942E0,3.294625790E0
1.574803898E0,2.025502682E0,2.350126982E0,1.781032562E0,3.577406174E0
1.582829889E0,2.333997250E0,2.181208134E0,2.741843224E0,4.209859421E0
1.590886397E0,2.566256046E0,1.963546991E0,4.019796371E0,5.157513912E0
1.598912388E0,2.656465530E0,1.777239799E0,5.684492111E0,6.521414032E0
1.606938379E0,2.708842278E0,1.174161196E0,6.914572716E0,7.518496980E0
1.614964370E0,2.637311459E0,4.687798023E-1,7.639843941E0,8.095824953E0
1.623020879E0,2.550597429E0,2.597527206E-2,7.698206902E0,8.109784921E0
1.631046870E0,2.108817816E0,8.291722834E-2,7.064746857E0,7.373237823E0
1.639072861E0,1.829083323E0,3.475243449E-1,5.734494209E0,6.029157720E0
1.647098852E0,1.751800537E0,7.499131560E-1,4.058238983E0,4.483355720E0
1.655155361E0,1.713902473E0,1.098455906E0,2.420217514E0,3.162517965E0
1.663181352E0,1.762295961E0,1.352137089E0,9.243211746E-1,2.405895134E0
1.671207343E0,1.811116815E0,1.452716112E0,-1.803293228E-1,2.328743628E0
1.679233334E0,1.845395327E0,1.526150942E0,-1.116644859E0,2.642255921E0
1.687289843E0,1.826175570E0,1.629767299E0,-1.758098602E0,3.013630594E0
1.695315834E0,1.504065990E0,2.028711557E0,-1.918373108E0,3.171441386E0
1.703341825E0,1.549450397E0,1.434348583E0,-2.131886005E0,3.000515011E0
1.711367816E0,1.221744657E0,8.964360356E-1,-2.108818054E0,2.596800177E0
1.719393807E0,8.245631456E-1,5.387688875E-1,-1.985131264E0,2.216060114E0
1.727450315E0,3.188936710E-1,5.038719773E-1,-1.875199795E0,1.967728237E0
1.735476306E0,-1.063337326E-1,5.799512267E-1,-2.016463757E0,2.100898943E0
1.743502298E0,-3.103334904E-1,7.156738639E-1,-2.461943150E0,2.582568494E0
1.751528289E0,-4.403390884E-1,6.011986732E-1,-5.163537979E0,5.217035827E0
1.759584797E0,-1.455819607E-1,1.075365067E0,-4.576439857E0,4.703339867E0
1.767610788E0,6.459742785E-1,1.567128539E0,-2.687782764E0,3.177632895E0
1.775636779E0,1.576220751E0,1.688646078E0,-1.947778702E0,3.021562394E0
1.783662771E0,1.139821053E0,1.598048210E0,-2.041849136E0,2.832330844E0
1.791688762E0,3.110101223E-1,1.472919345E0,-3.178329945E0,3.516816732E0
1.799745270E0,-5.463671684E-2,1.446876645E0,-4.242804050E0,4.483059603E0
1.807771261E0,-1.478537321E-1,1.480855584E0,-5.099648476E0,5.312363745E0
1.815797253E0,-9.921693802E-2,1.493044615E0,-5.596170902E0,5.792767472E0
1.823823244E0,-3.057075739E-1,1.455088973E0,-5.873672009E0,6.058940824E0
1.831879752E0,-5.309308767E-1,1.566475034E0,-5.738425255E0,5.972039520E0
1.834515208E0,2.288773537E0,2.623361826E0,1.766719818E0,3.904076138E0
1.842541199E0,1.975326896E0,1.985566854E0,1.966297150E0,3.422092424E0
1.850567191E0,1.721416473E0,1.282370567E0,1.985593796E0,2.924095017E0
1.858623699E0,1.694848418E0,1.059001684E0,1.926192284E0,2.775646311E0
1.866649690E0,1.388686895E0,1.008954406E0,2.051139832E0,2.674624253E0
1.874675682E0,1.616959929E0,7.526729703E-1,2.658960342E0,3.201741107E0
1.882701673E0,2.129235744E0,7.496615648E-1,3.492115021E0,4.158185257E0
1.890758181E0,2.429157734E0,1.087883234E0,4.370715141E0,5.117367299E0
1.898784172E0,2.707993031E0,1.237683892E0,5.188396454E0,5.982018508E0
1.906810164E0,2.896583080E0,1.166010857E0,5.902455330E0,6.677481095E0
1.914836155E0,2.644367933E0,8.159342408E-1,6.187438011E0,6.778113277E0
1.922892662E0,2.362723351E0,4.252604246E-1,6.174280167E0,6.624578752E0
1.930918655E0,1.865325809E0,4.972076416E-2,6.130062103E0,6.407774490E0
1.938944646E0,1.458983421E0,-1.111611128E-1,5.883176804E0,6.062405358E0
1.946970637E0,1.133743286E0,-1.215619445E-1,5.047417641E0,5.174608776E0
1.954996628E0,1.178833008E0,8.880037069E-2,3.864346504E0,4.041126906E0
1.963053136E0,1.406460404E0,5.702911019E-1,2.701076508E0,3.098253881E0
1.971079127E0,1.687363029E0,9.854105115E-1,1.735624313E0,2.613545413E0
1.979105118E0,1.878167868E0,1.161111951E0,9.570999146E-1,2.406602532E0
1.987131109E0,1.910210252E0,1.217505932E0,6.206798553E-2,2.266070682E0
1.995187618E0,1.901311278E0,1.263567924E0,-6.809902191E-1,2.382296404E0
2.003213609E0,1.816273689E0,1.282398939E0,-1.238555908E0,2.545077188E0
2.011239600E0,1.700155616E0,1.301233292E0,-1.594126701E0,2.669265280E0
2.019265591E0,1.499560595E0,1.301892281E0,-1.872401714E0,2.729376058E0
2.027291582E0,1.237775564E0,1.238345861E0,-2.044788837E0,2.691978865E0
2.035348091E0,1.117794871E0,1.147211552E0,-2.422371864E0,2.904039457E0
2.043374082E0,1.023085713E0,1.219447851E0,-2.816869736E0,3.235508082E0
2.051400073E0,8.424977064E-1,1.338284492E0,-3.214828014E0,3.582726187E0
2.059456582E0,7.070794106E-1,1.443544030E0,-3.592899799E0,3.936077950E0
2.067482573E0,6.826472282E-1,1.544466496E0,-3.905248642E0,4.254685764E0
2.075508564E0,6.276005507E-1,1.622241974E0,-4.268226147E0,4.609046096E0
2.083534555E0,4.898600578E-1,1.494627476E0,-4.621586800E0,4.881899089E0
2.091591063E0,6.817204952E-1,1.929419041E0,-4.935961723E0,5.343324696E0
2.099617054E0,9.035009146E-1,2.380036592E0,-5.153528690E0,5.748021055E0
2.107643045E0,9.686115980E-1,2.487169743E0,-5.250340939E0,5.889847343E0
2.115669036E0,7.028278112E-1,2.368729115E0,-5.085081100E0,5.653573591E0
2.123725545E0,4.784293175E-1,2.091970921E0,-4.653085232E0,5.124103738E0
2.131751536E0,3.222859502E-1,1.667026043E0,-4.161094189E0,4.494168322E0
2.139777527E0,6.433240771E-1,1.672648191E0,-3.825044632E0,4.224048328E0
2.147803518E0,6.024239063E-1,1.719196796E0,-3.576232910E0,4.013476550E0
2.155829510E0,1.782789230E-1,1.594675303E0,-3.534574986E0,3.881751283E0
2.163886018E0,-3.837184012E-1,9.952808619E-1,-3.685906410E0,3.837151270E0
2.171912009E0,-1.146867275E-1,1.048470140E0,-3.884046078E0,4.024705780E0
2.179938000E0,1.414042711E-1,1.350075245E0,-4.063807487E0,4.284533770E0
2.187963992E0,3.535493612E-1,1.739448547E0,-4.131893635E0,4.497023839E0
2.195989983E0,4.876176119E-1,2.116679668E0,-4.265024185E0,4.786286144E0
2.204046491E0,5.800690651E-1,2.492499828E0,-4.304697990E0,5.007939726E0
2.212072483E0,6.006410122E-1,2.846407652E0,-4.166456223E0,5.081551299E0
2.220098474E0,4.468871057E-1,3.087742567E0,-3.857306480E0,4.961116359E0
2.228124465E0,4.366755784E-1,3.373823881E0,-3.434873104E0,4.834431340E0
2.236150456E0,4.061463177E-1,3.813930273E0,-2.674345493E0,4.675803971E0
2.244206965E0,2.701982856E-1,4.098423004E0,-1.757785320E0,4.467648987E0
2.252232956E0,1.428245008E-1,4.280351162E0,-8.121576309E-1,4.359060097E0
2.260258947E0,1.653869748E-1,4.357721806E0,3.373165131E-1,4.373885528E0
2.268284938E0,2.303768992E-1,4.188418388E0,1.127473831E0,4.343629744E0
2.276341446E0,2.077051997E-1,3.837065220E0,1.545722008E0,4.141915919E0
2.284367437E0,3.493409753E-1,3.409065485E0,1.663697243E0,3.809416637E0
2.292393428E0,5.593073964E-1,3.085061312E0,1.823691368E0,3.627158429E0
2.300419419E0,7.596428394E-1,3.052637577E0,2.280328751E0,3.885299555E0
2.308445411E0,1.014285803E0,3.056967258E0,2.749518394E0,4.234817105E0
2.316501919E0,1.129893422E0,3.038782120E0,3.270001411E0,4.604754624E0
2.324527910E0,1.264973640E0,2.810069084E0,3.516106606E0,4.675430700E0
2.332553901E0,1.510483742E0,2.674334049E0,3.415719032E0,4.593556384E0
2.340579892E0,1.450224638E0,2.645509005E0,3.179477692E0,4.383029521E0
2.348605883E0,9.743946195E-1,2.695645571E0,3.085072517E0,4.211130769E0
2.356631875E0,4.376202822E-2,2.295529842E0,3.345549583E0,4.057594655E0
2.364688383E0,-1.888154149E-1,2.641548395E0,4.109210968E0,4.888664845E0
2.372714374E0,3.003183603E-1,2.402896404E0,5.129492760E0,5.672371481E0
2.380740366E0,9.694664478E-1,1.105618000E0,6.495109558E0,6.659482302E0
2.388766357E0,1.277719021E0,1.387364268E-1,7.442443848E0,7.552601149E0
2.396792348E0,1.345480800E0,-6.891815364E-2,7.931285858E0,8.044896746E0
2.404848857E0,1.754705667E0,6.758164167E-1,7.737523079E0,7.962724609E0
2.412874848E0,2.122737885E0,9.169455767E-1,6.900013924E0,7.277155864E0
2.420900839E0,1.499407530E0,1.018834352E0,5.959410667E0,6.229030573E0
2.428926830E0,1.083616376E0,1.156032324E0,4.694698334E0,4.954879174E0
2.436952821E0,9.703264236E-1,1.148656011E0,3.035920143E0,3.387883575E0
2.445009330E0,-3.196976781E-1,1.742888689E0,1.860911369E0,2.569602832E0
2.453035321E0,3.901755810E-2,1.020123482E0,8.778305054E-1,1.346388014E0
2.461061312E0,-8.604454398E-1,1.183815956E0,5.949831009E-1,1.579807413E0
2.469087303E0,-3.373413086E-1,5.468651056E-1,3.859405518E-1,7.495403336E-1
2.477113294E0,7.540774345E-2,1.050565168E-1,-1.439237595E-1,1.934870746E-1
2.485169802E0,-6.283570528E-1,-2.022325993E-1,-3.861083984E-1,7.647289097E-1
2.493195793E0,-6.179430485E-1,-3.165951967E-1,-6.852207184E-1,9.755068235E-1
2.501221785E0,-9.220417738E-1,8.776371181E-2,-1.434128761E0,1.707216684E0
2.509247776E0,-1.344863892E0,4.533982277E-1,-1.898353577E0,2.370226812E0
2.517304284E0,-1.743676543E0,5.848859549E-1,-2.388710022E0,3.014703142E0
2.525330275E0,-1.747732520E0,7.684823275E-1,-2.877750397E0,3.453488294E0
2.533356266E0,-1.555903435E0,1.225695372E0,-3.244069576E0,3.800940944E0
2.541382257E0,-1.060424805E0,1.557225108E0,-3.603603363E0,4.066375290E0
2.549408249E0,-6.947649717E-1,1.634600163E0,-3.999297619E0,4.375956753E0
2.557464757E0,-6.187975407E-1,1.580010176E0,-4.434896946E0,4.748436951E0
2.565490748E0,-5.982239246E-1,1.542378187E0,-5.042410851E0,5.306854956E0
2.573516740E0,-3.483750820E-1,1.761468410E0,-5.404076576E0,5.694574593E0
2.581542731E0,-5.811121464E-1,2.169434309E0,-5.845817566E0,6.262405254E0
2.589599239E0,-8.224058151E-1,2.260109901E0,-6.108773232E0,6.565177719E0
2.597625230E0,-1.235102177E0,2.553294659E0,-6.153766632E0,6.775960062E0
2.605651222E0,-1.707922459E0,2.971107721E0,-6.090968132E0,6.988874945E0
2.613677213E0,-1.952416539E0,3.115359545E0,-6.037853241E0,7.069163118E0
2.621733721E0,-1.803564072E0,2.523275852E0,-5.669839382E0,6.462727211E0
2.629759713E0,-1.400620699E0,1.633737206E0,-5.452084541E0,5.861404392E0
2.637785704E0,-7.450751066E-1,9.090907574E-1,-5.621150494E0,5.742727209E0
2.645811695E0,-2.792772055E-1,8.271077871E-1,-5.726572990E0,5.792731762E0
2.653868202E0,-2.636381388E-1,1.081543684E0,-5.910359383E0,6.014282155E0
2.661894194E0,-1.769721508E-1,1.109350681E0,-6.038783073E0,6.142383827E0
2.669920185E0,-2.474863529E-1,9.308094978E-1,-6.197167397E0,6.271565957E0
2.677946176E0,-2.978122234E-1,6.053717136E-1,-6.734865189E0,6.768572681E0
2.686002685E0,-2.593760490E-1,3.204041123E-1,-7.185069084E0,7.196884915E0
2.694028676E0,-3.390655518E-1,2.430190742E-1,-7.256885529E0,7.268865888E0
2.702054667E0,-4.268457890E-1,7.839888334E-2,-7.789138794E0,7.801219575E0
2.710080658E0,-4.386525154E-1,-1.079185903E-1,-7.885783672E0,7.898711704E0
2.718137167E0,-2.459049225E-1,-2.767037749E-1,-7.908179283E0,7.916838623E0
2.726163158E0,4.255073071E-1,-4.137864411E-1,-7.807593346E0,7.830120659E0
2.734189149E0,1.584523916E0,-5.826441050E-1,-8.390380859E0,8.558544336E0
2.742245658E0,2.139864922E0,-8.713536263E-1,-8.725569725E0,9.026286393E0
2.750271649E0,2.237866640E0,-1.213811755E0,-8.651926041E0,9.018714448E0
2.758297640E0,2.440333843E0,-1.540108442E0,-8.375923157E0,8.859077379E0
2.766323631E0,2.824637413E0,-1.836023092E0,-8.360290527E0,9.013546195E0
2.774380139E0,3.919092655E0,-1.938640356E0,-8.551580429E0,9.604537548E0
2.782406130E0,5.340435982E0,-2.534347534E0,-8.306276321E0,1.019496936E1
2.790432121E0,6.665665150E0,-3.393700123E0,-7.414753914E0,1.053218249E1
2.798458112E0,8.018352509E0,-4.319738865E0,-5.586559296E0,1.068474453E1
2.806514621E0,8.851363182E0,-4.737645149E0,-2.954545498E0,1.046524012E1
2.814540612E0,9.521975517E0,-4.791364670E0,-3.059034348E-1,1.066390032E1
2.822566603E0,1.039470482E1,-5.076861382E0,1.466141701E0,1.166078819E1
2.830623112E0,1.061935616E1,-4.965898037E0,2.364219189E0,1.195911371E1
2.838649103E0,1.006940651E1,-4.697884560E0,3.001688480E0,1.150970028E1
2.846675094E0,8.482578278E0,-4.323060989E0,2.959053993E0,9.969904267E0
2.854731603E0,6.158899307E0,-3.833542109E0,1.964805126E0,7.515886173E0
2.862757594E0,6.400837421E0,-4.435977936E0,4.057149887E-1,7.798283439E0
2.870783585E0,6.613536358E0,-5.220343590E0,-2.884378433E-1,8.430542494E0
2.878840092E0,6.956533909E0,-5.289999008E0,-4.555358887E-1,8.751283705E0
2.886866084E0,6.945847511E0,-4.832111359E0,3.216104507E-1,8.467439466E0
2.894922592E0,7.494280338E0,-4.747647285E0,1.301215172E0,8.966468282E0
2.902948583E0,7.999551773E0,-4.730132103E0,2.187729836E0,9.547415363E0
2.910974575E0,8.006567955E0,-4.434367657E0,2.938957691E0,9.612815365E0
2.919031083E0,7.510567665E0,-4.023237228E0,3.595717907E0,9.247932294E0
2.927057074E0,6.736166000E0,-3.545175552E0,4.091661453E0,8.642100180E0
2.935083065E0,6.161450386E0,-3.205900669E0,4.404380798E0,8.224344362E0
2.943139573E0,5.314622879E0,-2.463080883E0,4.509892941E0,7.392639455E0
2.951165564E0,3.955327988E0,-1.771028042E0,4.432666779E0,6.199168862E0
2.959222073E0,2.702115059E0,-1.211971283E0,4.190824509E0,5.131599190E0
2.967248064E0,1.419281006E0,-9.077038765E-1,3.713838816E0,4.078098043E0
2.975304573E0,3.768053055E-1,-5.084342957E-1,3.223076820E0,3.284617460E0
2.983330564E0,-6.094141006E-1,1.165628433E-1,2.979675055E0,3.043589308E0
2.991356555E0,-1.517198086E0,8.173918724E-1,3.012596607E0,3.470699904E0
2.999413063E0,-2.063648224E0,1.467841625E0,3.156314373E0,4.046668191E0
3.007439054E0,-2.418213844E0,2.244956970E0,3.246047974E0,4.628651795E0
3.015465046E0,-2.645673275E0,3.093575716E0,3.245616674E0,5.206133439E0
3.023521554E0,-2.718558311E0,3.984102726E0,3.094345093E0,5.730497830E0
3.031547545E0,-2.808631897E0,4.644354343E0,2.898783684E0,6.153160752E0
3.039604053E0,-2.852690697E0,5.114080906E0,2.878485680E0,6.525131993E0
3.047630044E0,-2.792696953E0,5.627828598E0,2.960373878E0,6.945172748E0
3.055686552E0,-2.692042351E0,6.482449532E0,3.053866625E0,7.654759651E0
3.063712544E0,-3.108664513E0,6.925176144E0,3.345724821E0,8.295524953E0
3.071738535E0,-3.193966866E0,7.248216629E0,3.426314354E0,8.630046274E0
3.079795043E0,-3.230303764E0,7.354827881E0,3.457215548E0,8.745324174E0
3.087821034E0,-3.241888523E0,7.404873848E0,3.247569084E0,8.711412219E0
3.095847025E0,-3.164866924E0,7.575430393E0,2.737419605E0,8.654304963E0
3.103903534E0,-3.137328148E0,7.824595928E0,2.095811367E0,8.686745917E0
3.111929525E0,-2.567716122E0,7.492900372E0,1.455011129E0,8.053184429E0
3.119986034E0,-2.020709515E0,6.974498272E0,9.596762657E-1,7.324470740E0
3.128012025E0,-1.546989441E0,6.449737549E0,5.924893618E-1,6.659079097E0
3.136038016E0,-1.015005112E0,5.891445637E0,4.309446812E-1,5.993753447E0
3.144064007E0,-1.857652664E-1,5.081799984E0,6.096498966E-1,5.121608420E0
3.152120515E0,5.685129166E-1,4.156452656E0,1.421214700E0,4.429351740E0
3.160146506E0,1.040126801E0,3.369019508E0,2.569668055E0,4.362951996E0
3.168203015E0,1.619225502E0,2.661900520E0,4.103064060E0,5.151964702E0
3.176229006E0,2.297441006E0,2.337936401E0,5.564899445E0,6.458505061E0
3.184285514E0,2.959663391E0,2.683351040E0,6.436055660E0,7.575143078E0
3.192311506E0,4.177565575E0,3.062865734E0,6.549005032E0,8.350010032E0
3.200337497E0,5.756944656E0,3.291598797E0,6.031507492E0,8.964157353E0
3.208394004E0,7.691390991E0,3.336548328E0,5.000453949E0,9.761894787E0
3.216450513E0,8.637920380E0,3.146747112E0,3.792599678E0,9.944822683E0
3.224476504E0,8.719845772E0,2.819601059E0,2.481758833E0,9.494471408E0
3.232502495E0,9.066696167E0,1.873731613E0,6.744741201E-1,9.282820955E0
3.240559004E0,9.136930466E0,1.052214622E0,-6.912702322E-1,9.223259103E0
3.248584995E0,9.211815834E0,1.968836784E-1,-1.633249998E0,9.357554152E0
3.256610986E0,9.348405838E0,-6.768717766E-1,-2.218738794E0,9.631907856E0
3.264667494E0,9.448630333E0,-1.326794624E0,-2.546447992E0,9.875292225E0
3.272693486E0,9.400923729E0,-1.602907658E0,-2.705811024E0,9.913026441E0
3.280719477E0,9.520092010E0,-1.723517418E0,-2.848081827E0,1.008534750E1
3.288745468E0,9.560668945E0,-2.154553890E0,-2.957432985E0,1.023693817E1
3.296801976E0,9.246177673E0,-2.810220242E0,-3.276942253E0,1.020428782E1
3.304827967E0,8.476535797E0,-3.422969341E0,-3.490830183E0,9.785411264E0
3.312884476E0,7.620371819E0,-3.681392193E0,-3.418030262E0,9.127192668E0
3.320910467E0,6.568505287E0,-3.775536060E0,-3.027704000E0,8.158855665E0
3.328936458E0,5.833611012E0,-3.674851894E0,-2.523955822E0,7.342064210E0
3.336992967E0,5.176001549E0,-3.361898899E0,-1.935723305E0,6.468414099E0
3.345018958E0,4.984490395E0,-2.943706036E0,-1.542860031E0,5.990907009E0
3.353075465E0,5.143351078E0,-2.532194138E0,-1.712061882E0,5.983078083E0
3.361101457E0,5.355970383E0,-2.657993793E0,-2.941518784E0,6.663623826E0
3.369157965E0,5.305852413E0,-3.224757195E0,-4.029006004E0,7.401622672E0
3.377183956E0,5.051359177E0,-3.738492489E0,-4.250888824E0,7.587002795E0
3.385240465E0,4.513838291E0,-4.231583118E0,-3.693389416E0,7.205703101E0
3.393266456E0,3.524618149E0,-4.059514046E0,-2.945930243E0,6.130341946E0
3.401322964E0,1.952052116E0,-3.787340164E0,-2.737283230E0,5.064303749E0
3.409348955E0,6.736364365E-1,-3.750308514E0,-2.823491573E0,4.742436574E0
3.417374946E0,2.155156136E-1,-3.540668964E0,-2.510779381E0,4.345894246E0
3.425431455E0,2.856211662E-1,-2.991563320E0,-1.607389450E0,3.408039230E0
3.433457446E0,8.889961243E-2,-2.496183872E0,-8.291021585E-1,2.631776483E0
3.441483437E0,-2.126965523E-1,-1.415033817E0,-2.097568512E-1,1.446222135E0
3.449539946E0,-1.101055622E0,-1.236777306E0,3.606441021E-1,1.694699311E0
3.457565937E0,-1.766686440E0,-2.768373489E-1,8.973731995E-1,2.000774488E0
3.465591928E0,-1.888579369E0,5.834527016E-1,9.365401268E-1,2.187294332E0
3.473648436E0,-1.574744701E0,1.405239582E0,7.488462925E-1,2.239484299E0
3.481674428E0,-1.287793636E0,2.069047451E0,4.619486332E-1,2.480477040E0
3.489700419E0,-8.023557663E-1,2.677202702E0,5.609984398E-1,2.850597890E0
3.497756926E0,-2.964735031E-2,3.568287849E0,8.981616497E-1,3.679708071E0
3.505782918E0,5.448436737E-2,4.374582291E0,7.706711292E-1,4.442282381E0
3.513839426E0,-6.836504936E-1,4.699713230E0,1.763420105E-1,4.752449784E0
3.521865417E0,-1.262309551E0,4.775390148E0,-5.927011967E-1,4.974843835E0
3.529921926E0,-1.746127605E0,4.944492340E0,-9.314227104E-1,5.325834618E0
3.537947917E0,-2.223052502E0,5.122469902E0,-8.863700628E-1,5.653964292E0
3.545973908E0,-2.408504248E0,5.277458668E0,-2.799777985E-1,5.807826639E0
3.554030416E0,-2.177171230E0,5.510245323E0,5.897557735E-1,5.954048199E0
3.562056407E0,-1.351581097E0,5.801019192E0,1.033699989E0,6.045422301E0
3.570112916E0,-1.591377258E-1,6.076977253E0,8.703651428E-1,6.141051443E0
3.578138907E0,6.782927513E-1,6.261297226E0,2.400946617E-1,6.302505014E0
3.586164898E0,5.383868217E-1,6.361930847E0,-1.238692999E0,6.503720844E0
3.594221407E0,1.748132706E-1,6.160256386E0,-4.047232151E0,7.372883188E0
3.602247398E0,-3.446545601E-1,5.684699059E0,-6.134353638E0,8.370476970E0
3.610273389E0,-8.911805153E-1,5.325888634E0,-6.985242367E0,8.829094142E0
3.618329897E0,-9.246301651E-1,5.080233097E0,-6.643316269E0,8.414116728E0
3.626355888E0,-1.419181824E-1,5.175033569E0,-5.385709286E0,7.470406798E0
3.634381879E0,9.895429611E-1,5.415604115E0,-3.871552706E0,6.730295948E0
3.642438388E0,1.857731342E0,5.626704216E0,-2.835190296E0,6.568810401E0
3.650464379E0,3.198484421E0,5.671417713E0,-2.415627718E0,6.944821001E0
3.658490370E0,5.222085953E0,5.982654572E0,-2.367454052E0,8.286566002E0
3.666546878E0,7.553927898E0,6.292010307E0,-2.442290068E0,1.012995564E1
3.674572870E0,9.576375008E0,6.650949955E0,-2.881152630E0,1.201012631E1
3.682598861E0,1.190346146E1,7.118813515E0,-2.639395475E0,1.411865110E1
3.690655369E0,1.094411087E1,7.221107006E0,-2.219141483E0,1.329821560E1
3.698681361E0,8.089032173E0,6.635270119E0,-2.897697210E0,1.085614573E1
3.706707352E0,4.725763321E0,5.707076073E0,-3.355332375E0,8.133991124E0
3.714763859E0,1.559337139E0,4.799377441E0,-3.283109188E0,6.020329067E0
3.722789851E0,-2.085113525E-2,3.801926851E0,-2.500792027E0,4.550718988E0
3.730815842E0,1.302596569E0,2.542171478E0,-1.207029343E0,3.101018136E0
3.738872350E0,3.060245037E0,1.624023914E0,-5.804061890E-2,3.464956288E0
3.746898341E0,5.557719231E0,1.121076584E0,1.043629885E0,5.764912756E0
3.754924333E0,7.545615196E0,1.130674839E0,2.369433880E0,7.989302297E0
3.762980841E0,8.898674011E0,1.235424995E0,3.416602612E0,9.611755692E0
3.771006832E0,9.936529160E0,1.496101379E0,4.008809090E0,1.081866357E1
3.779063340E0,9.974357605E0,1.756707668E0,3.815952778E0,1.082290751E1
3.787089331E0,9.462512970E0,1.927854538E0,2.739285707E0,1.003790123E1
3.795115322E0,8.997428894E0,2.167380333E0,1.383483171E0,9.357632708E0
3.803171831E0,8.003095627E0,2.172971249E0,-3.645968437E-1,8.300859866E0
3.811197822E0,5.606757641E0,1.581971169E0,-3.767614365E0,6.937815364E0
3.819223813E0,2.617709637E0,5.527491570E-1,-7.760343075E0,8.208584532E0
3.827280322E0,1.340684414E0,-2.312827110E-1,-8.442500114E0,8.551417109E0
3.835306313E0,2.957714558E0,-7.610778809E-1,-5.913192749E0,6.655310919E0
3.843332304E0,5.592282295E0,-5.817017555E-1,-2.335748672E0,6.088326540E0
3.851388813E0,6.731063843E0,1.559300423E-1,-8.408602476E-1,6.785173586E0
3.859445320E0,6.176855087E0,1.125616074E0,7.460221052E-1,6.322744602E0
3.867471312E0,2.659241676E0,-7.983732224E-2,1.985426903E0,3.319617490E0
3.875497303E0,1.699697495E0,-2.630281925E0,2.840836048E0,4.228203405E0
3.883553811E0,4.986133575E-1,-4.007083416E0,7.329816818E-1,4.103973066E0
3.891579803E0,-1.054587364E0,-3.489305496E0,-3.621705532E0,5.138497671E0
3.899605794E0,-8.552160263E-1,-1.273614407E0,-6.034457684E0,6.226408888E0
3.907662302E0,2.763252258E-1,-5.944552422E-1,-6.203680992E0,6.238220140E0
3.915718810E0,-3.201904297E-1,2.085132599E-1,-4.342192173E0,4.358971502E0
3.923744801E0,-1.416791916E0,1.387719870E0,-3.049477577E0,3.637633745E0
3.931770792E0,-2.945939064E0,2.023402214E0,-6.984658241E-1,3.641506281E0
3.939827301E0,-3.706229687E0,1.895039797E0,1.576923132E0,4.451292047E0
3.947853292E0,-4.025864124E0,1.859075904E0,2.462367296E0,5.072178808E0
3.955909801E0,-3.884074211E0,1.699429631E0,2.434733391E0,4.888969240E0
3.963935792E0,-3.664477825E0,1.346116066E0,1.392784357E0,4.144909463E0
3.971961783E0,-4.499824524E0,1.305994391E0,9.223462939E-1,4.775433465E0
3.980018291E0,-5.431499004E0,1.692971349E0,7.109478712E-1,5.733478900E0
3.988044282E0,-6.143458843E0,2.005489826E0,6.529284716E-1,6.495413119E0
3.996112196E0,-6.803298950E0,2.536703587E0,1.164307833E0,7.353594660E0
4.004138182E0,-6.927002907E0,2.841205120E0,1.866191983E0,7.716118734E0
4.012194685E0,-6.669684410E0,2.663970470E0,2.375344753E0,7.564634260E0
4.020220671E0,-6.387223244E0,2.047180891E0,2.465551615E0,7.146083902E0
4.028277175E0,-6.326952457E0,1.061024189E0,2.367061138E0,6.838060994E0
4.036303161E0,-6.824726582E0,-1.687308550E-1,2.180262327E0,7.166512878E0
4.044359665E0,-7.430431366E0,-8.321735859E-1,2.098602533E0,7.765819709E0
4.052385651E0,-7.748402596E0,-1.111785412E0,1.905351400E0,8.056312652E0
4.060411637E0,-2.276451111E0,-2.504993439E0,1.846189737E0,3.855598311E0
4.068437623E0,-6.387979031E0,-1.871473432E0,1.479461193E0,6.818907121E0
4.076494126E0,-8.038260460E0,-1.099232793E0,2.074684501E-1,8.115724682E0
4.084550630E0,-8.792084694E0,-1.142835498E0,-2.553043962E-1,8.869724154E0
4.092576616E0,-7.953176498E0,-2.150044441E0,-9.049496651E-1,8.288223055E0
4.100633120E0,-7.065020561E0,-2.860989332E0,-1.590517879E0,7.786496170E0
4.108659106E0,-5.347048759E0,-3.945598364E0,-1.835230350E0,6.893964558E0
4.116715609E0,-4.073271275E0,-4.634091377E0,-2.053491354E0,6.502550923E0
4.124741595E0,-2.733371258E0,-4.857513428E0,-2.895058632E0,6.280773807E0
4.132767581E0,-7.791042328E-1,-4.139921188E0,-3.916618586E0,5.752030250E0
4.140824085E0,2.312995911E0,-3.647737503E0,-5.646918297E0,7.109403999E0
4.148850071E0,8.359477997E0,-2.968495369E0,-1.246573544E1,1.529991494E1
4.156906575E0,8.205879211E0,-2.051445007E0,-2.010480118E1,2.181164622E1
4.164932561E0,-4.086671829E0,5.315256119E-1,-1.274297523E1,1.339279000E1
4.172989064E0,-3.525814056E0,-5.031991005E-1,-9.644225121E0,1.028083908E1
4.181015050E0,1.538101196E0,-3.440290213E0,-4.737658501E0,6.053656755E0
4.189071553E0,6.900352478E0,-3.855521202E0,7.257057667E0,1.073055423E1
4.197097540E0,1.077751541E1,-3.640391350E0,7.921976089E0,1.386235885E1
4.205123526E0,7.656287193E0,-3.023447037E0,4.660311699E0,9.459306037E0
4.213180030E0,9.935354233E0,-2.549251556E0,5.972561359E0,1.186934861E1
4.221206016E0,1.249087906E1,-3.410501480E0,-1.622459769E0,1.304936610E1
4.229262518E0,1.432857895E1,-4.812491894E0,-5.410520077E0,1.605434460E1
4.237288505E0,1.179969788E1,-4.582731724E0,-2.280446291E0,1.286214350E1
4.245314492E0,8.535262108E0,-3.596315384E0,1.191088796E0,9.338248021E0
4.253340478E0,7.826148987E0,-3.707401752E0,4.089843273E0,9.577069161E0
4.261396981E0,8.489117622E0,-4.729358673E0,2.156521797E0,9.954021184E0
4.269422967E0,5.600769997E0,-5.838267803E0,-1.438903928E0,8.217325600E0
4.277448953E0,-8.653383255E-1,-3.807811260E0,1.118551612E0,4.061944697E0
4.285505457E0,-3.737096310E0,-2.030145645E0,5.045653820E0,6.598939509E0
4.293531443E0,-3.317978382E0,-2.267156124E0,4.174353123E0,5.794324933E0
4.301587947E0,-1.578426838E0,-1.677168369E0,2.684293270E0,3.536913256E0
4.309613933E0,-2.233317375E0,-3.641657829E-1,1.753524065E0,2.862720710E0
4.317639919E0,-8.629865646E-1,1.168403149E0,9.599901438E-1,1.741118263E0
4.325696422E0,-4.864196777E-1,9.425559044E-1,2.091248751E0,2.344853316E0
4.333722408E0,-7.287864685E-1,7.366437912E-1,8.301784992E-1,1.327768855E0
4.341748394E0,-1.202408314E0,3.406577110E-1,-2.603794336E-1,1.276569966E0
4.349804898E0,-1.716268063E0,1.240291595E-1,1.997625828E-2,1.720859769E0
4.357830884E0,-1.792040348E0,2.972345352E-1,5.206915140E-1,1.889676330E0
4.365856871E0,-1.577723503E0,-1.726970673E-1,2.538813114E0,2.994095482E0
4.373913374E0,-1.355661392E0,2.815485001E-2,2.254996300E0,2.631277032E0
4.381939361E0,-1.972373247E0,6.934561729E-1,1.146072149E-1,2.093865445E0
4.389995863E0,-2.144755363E0,5.844898224E-1,5.250365734E-1,2.284133824E0
4.398021849E0,-2.348030090E0,7.857584953E-1,8.026462793E-1,2.602864339E0
4.406047837E0,-2.555085659E0,2.696574211E0,1.542232037E-1,3.718031737E0
4.414104339E0,-3.188243389E0,3.947462559E0,-4.247463942E-1,5.091931467E0
4.422130326E0,-3.717972279E0,4.654276848E0,-9.261182547E-1,6.028540940E0
4.430186829E0,-4.069654465E0,5.173867702E0,-1.092404127E0,6.672656236E0
4.438212816E0,-4.188558102E0,5.555263519E0,-1.282188773E0,7.074530358E0
4.446238802E0,-4.019176006E0,5.597803116E0,-1.420709729E0,7.036163133E0
4.454264788E0,-3.672914743E0,5.375731468E0,-1.138958693E0,6.609539956E0
4.462321292E0,-3.177974224E0,4.695461273E0,2.842640877E-2,5.669892838E0
4.470347278E0,-2.386368275E0,3.546615124E0,1.968407869E0,4.706151498E0
4.478373264E0,-1.793494940E0,3.507684231E0,3.873124123E-1,3.958596174E0
4.486429767E0,-1.034699321E0,3.289114475E0,6.937885284E-2,3.448722972E0
4.494455753E0,-6.766507626E-1,3.562299728E0,-9.600207806E-1,3.750929952E0
4.502481739E0,-4.160838127E-1,3.834980488E0,-1.565523386E0,4.163059518E0
4.510538243E0,1.637935638E-2,3.845244884E0,-1.455074906E0,4.111376836E0
4.518564229E0,3.984062672E-1,3.763271809E0,-1.570143938E0,4.097108034E0
4.526620733E0,1.083854318E0,3.424387932E0,-1.968389869E0,4.095818791E0
4.534646719E0,1.713556886E0,3.133442879E0,-1.784167528E0,3.992241882E0
4.542703222E0,1.874665141E0,3.146462440E0,-1.867375374E0,4.111166023E0
4.550729208E0,2.106709003E0,3.085180759E0,-1.978764534E0,4.227537371E0
4.558785712E0,2.065344334E0,3.385719299E0,-2.272583008E0,4.570927249E0
4.566811698E0,1.853127837E0,3.918897629E0,-2.576828003E0,5.043003466E0
4.574837684E0,2.069350958E0,4.283426762E0,-3.262448788E0,5.768321272E0
4.582894188E0,3.035458803E0,3.898956776E0,-4.124026299E0,6.436106509E0
4.590920174E0,4.877532005E0,3.295696735E0,-4.277143002E0,7.276392491E0
4.598976677E0,6.345918179E0,2.780173779E0,-3.672249079E0,7.841266292E0
4.607002663E0,6.854208946E0,2.274685860E0,-4.305731773E0,8.407954694E0
4.615028650E0,7.908364773E0,8.340611458E-1,-4.388296127E0,9.082677704E0
4.623085153E0,9.432339668E0,-1.410222054E0,-4.243832111E0,1.043876759E1
4.631111139E0,1.107620144E1,-4.619765282E0,-4.959124565E0,1.298527574E1
4.639137125E0,1.246250057E1,-8.875347137E0,-3.677117348E0,1.573552984E1
4.647163112E0,1.171294117E1,-1.283306122E1,-2.638508558E0,1.757390618E1
4.655219615E0,1.188650322E1,-1.543769360E1,-2.333044529E0,1.962280406E1
4.663276119E0,1.153122520E1,-1.337903786E1,-4.115492821E0,1.813574068E1
4.671302105E0,1.189260960E1,-1.217495346E1,-5.494583130E0,1.788446529E1
4.679328091E0,1.080658817E1,-1.142031670E1,-6.812872887E0,1.713537914E1
4.687384594E0,9.176273346E0,-1.085534954E1,-7.911274910E0,1.626747912E1
4.695410580E0,8.754499435E0,-1.001574326E1,-8.214942932E0,1.563463017E1
4.703436567E0,9.477761269E0,-9.334406853E0,-6.356600761E0,1.474331995E1
4.711493070E0,1.041061401E1,-8.060874939E0,-4.057970524E0,1.377772527E1
4.719519056E0,1.089098549E1,-6.766907692E0,-2.454928160E0,1.305493305E1
4.727545043E0,1.116434288E1,-5.807131767E0,-1.749707460E0,1.270538498E1
4.735601546E0,1.118498230E1,-4.562686920E0,-1.708320141E0,1.220001224E1
4.743627533E0,1.075420666E1,-3.049155235E0,-2.380737066E0,1.142883273E1
4.751653519E0,9.484317780E0,-1.853115082E0,-2.913313150E0,1.009325085E1
4.759710022E0,7.169162750E0,-2.044027328E0,-1.904597998E0,7.694311912E0
4.767736008E0,5.468917370E0,-3.232653618E0,-8.772110939E-2,6.353487358E0
4.775761994E0,4.815366745E0,-4.296316147E0,1.061153173E0,6.540040931E0
4.783818498E0,4.458791256E0,-5.435307503E0,1.637498856E0,7.218364747E0
4.791844484E0,4.294073105E0,-6.517978668E0,2.093299627E0,8.081151717E0
4.799900988E0,4.417057037E0,-7.672100067E0,1.955191374E0,9.066106420E0
4.807926974E0,4.034000874E0,-9.089707375E0,3.599822760E0,1.057613668E1
4.815952960E0,4.367552280E0,-1.017441845E1,4.124339581E0,1.181543400E1
4.824009464E0,3.946703911E0,-1.146510983E1,4.748901844E0,1.302218429E1
4.832035450E0,2.863386631E0,-1.285746384E1,5.752387047E0,1.437370224E1
4.840091953E0,2.068643093E0,-1.279793930E1,5.674310684E0,1.415147824E1
4.848117939E0,7.924983501E-1,-1.176390076E1,5.758031845E0,1.312144601E1
4.856143925E0,-9.131513834E-1,-1.011533737E1,3.650928020E0,1.079273696E1
4.864200429E0,-2.370673418E0,-6.159813881E0,-4.898767471E-1,6.618412100E0
4.872226415E0,-2.200563192E0,-3.107297897E0,-2.340941429E0,4.469651593E0
4.880282919E0,-2.541784048E0,-1.051498413E0,-2.924340248E0,4.014732986E0
4.888308905E0,-2.795091867E0,4.844551086E-1,-2.986682892E0,4.119163750E0
4.896334891E0,-3.090869904E0,1.443254471E0,-2.253707170E0,4.088478475E0
4.904391394E0,-3.399355650E0,2.523117065E0,-8.255653381E-1,4.313153914E0
4.912478414E0,-3.625483990E0,3.529946327E0,4.706482887E-1,5.081945006E0
4.920504401E0,-3.775030136E0,4.555294991E0,1.616097212E0,6.132971154E0
4.928530388E0,-3.810765266E0,5.602997303E0,2.458795309E0,7.208410717E0
4.936586890E0,-3.657546043E0,6.517938614E0,3.263081789E0,8.155297027E0
4.944612876E0,-3.356472969E0,7.287747383E0,4.052608967E0,8.988927197E0
4.952669380E0,-3.155533314E0,7.978069305E0,4.402905941E0,9.643265062E0
4.960695366E0,-2.911143780E0,8.661386490E0,4.540809631E0,1.020359379E1
4.968721353E0,-2.760617256E0,9.352476120E0,4.439040184E0,1.071423796E1
4.976777856E0,-3.050170422E0,9.945256233E0,4.482580662E0,1.132718811E1
4.984803842E0,-3.594407082E0,1.048077965E1,4.611545563E0,1.200136895E1
4.992829829E0,-4.352464199E0,1.086726761E1,4.739681721E0,1.262956977E1
5.000886331E0,-5.044596672E0,1.098428249E1,4.873585701E0,1.303281455E1
5.008912318E0,-5.836182594E0,1.085224724E1,5.042738438E0,1.331395915E1
5.016938304E0,-6.735025406E0,1.040975761E1,4.969330311E0,1.335731502E1
5.024994808E0,-7.655982018E0,9.824697495E0,4.728615284E0,1.332285795E1
5.033020794E0,-8.723775864E0,8.996971130E0,4.256405354E0,1.323505729E1
5.041077297E0,-9.804615021E0,8.286405563E0,3.206767797E0,1.323171767E1
5.049103284E0,-1.067190361E1,7.483396530E0,1.460135102E0,1.311574416E1
5.057129270E0,-1.082420921E1,6.394295216E0,-1.518929243E0,1.266324060E1
5.065185773E0,-1.067587852E1,4.917399406E0,-5.818956852E0,1.311546637E1
5.073211759E0,-9.084282875E0,2.288283825E0,-2.346106339E1,2.526226303E1
5.081237746E0,-3.902713060E0,-2.148618698E-1,-2.478170967E1,2.508805431E1
5.089294249E0,7.136149406E0,-2.829114914E0,-2.284016228E1,2.409567456E1
5.097320235E0,1.155483627E1,-4.787340164E0,-1.202149582E1,1.734788831E1
5.105346221E0,1.291749382E1,-6.891981125E0,-5.211875439E0,1.554106483E1
5.113402725E0,1.331830883E1,-8.433621407E0,-3.428530693E-1,1.576771602E1
5.121428711E0,1.364210320E1,-1.005727005E1,8.944815397E-1,1.697220545E1
5.129485215E0,1.505536366E1,-1.207732105E1,-2.184118629E-1,1.930215953E1
5.137511201E0,1.407634640E1,-1.282035160E1,-1.876215339E0,1.913178316E1
5.145567704E0,1.264663124E1,-1.347524071E1,-9.547954798E-1,1.850489201E1
5.153593690E0,9.824666977E0,-1.480531025E1,1.854945064E0,1.786510884E1
5.161650194E0,7.193263054E0,-1.622184372E1,2.407114267E0,1.790769237E1
5.169676180E0,3.519285440E0,-1.541193867E1,1.964084268E0,1.593018677E1
5.177702166E0,-2.069966316E0,-1.009061527E1,3.101869583E0,1.075764249E1
5.185758670E0,-5.882349014E0,-4.733201981E0,6.062705040E0,9.683058572E0
5.193784656E0,-8.240890503E0,2.624416351E-2,4.953040600E0,9.614862257E0
5.201841159E0,-8.717319489E0,3.999629021E0,3.837522984E0,1.033030852E1
5.209867145E0,-7.922192574E0,5.495508671E0,4.773743153E0,1.075873480E1
5.217893131E0,-7.669434071E0,5.932892799E0,5.276047230E0,1.103884551E1
5.225919117E0,-7.119930267E0,5.910090446E0,4.965318680E0,1.050128400E1
5.233975621E0,-6.730899334E0,5.468748093E0,4.779871941E0,9.902493995E0
5.242001607E0,-6.438758850E0,4.318848610E0,4.389546394E0,8.909443664E0
5.250027594E0,-4.964902878E0,2.565404892E0,3.779182434E0,6.746390347E0
5.258084097E0,-4.460596085E0,7.576236725E-1,3.204105854E0,5.544114481E0
5.266110083E0,-4.949473381E0,-1.314679146E0,2.730771780E0,5.803686976E0
5.274136070E0,-4.723280430E0,-2.886569977E0,2.162717581E0,5.942980026E0
5.282192572E0,-4.716430664E0,-4.044496536E0,1.837465167E0,6.479116350E0
5.290218560E0,-3.700996161E0,-4.435452461E0,1.052859068E0,5.871892653E0
5.298244546E0,-2.927774906E0,-3.250822067E0,-5.701905489E-1,4.411896109E0
5.306270532E0,-2.986988544E0,-1.974994659E0,-2.994534373E-1,3.593379583E0
5.314327035E0,-2.687928677E0,-8.547601700E-1,2.017991543E-1,2.827772695E0
5.322353021E0,-2.071123362E0,-1.502561569E-1,8.527706861E-1,2.244848934E0
5.330379007E0,-1.405646205E0,7.278232574E-1,1.535986304E0,2.205634121E0
5.338435511E0,9.955112338E-1,2.321027279E0,1.837568283E-1,2.532188148E0
5.346461497E0,1.649300694E0,3.357877731E0,-1.058548689E0,3.887937881E0
5.354487483E0,2.167631388E0,4.159170628E0,-1.595933676E0,4.954223495E0
5.362543987E0,2.777773857E0,4.516948223E0,-2.038462877E0,5.681036856E0
5.370569973E0,3.169658661E0,4.473148346E0,-2.115379095E0,5.876276105E0
5.378595959E0,3.400840759E0,4.027755260E0,-2.107342958E0,5.677096498E0
5.386652462E0,3.547811508E0,3.228836060E0,-2.232393026E0,5.291117786E0
5.394678448E0,3.715855598E0,2.224801540E0,-2.325140476E0,4.915648783E0
5.402704435E0,3.973753691E0,1.028434753E0,-2.294724941E0,4.702569403E0
5.410730422E0,4.158421040E0,4.535102844E-2,-2.243676186E0,4.725315342E0
5.418786925E0,4.137281418E0,-8.872365952E-1,-2.091075897E0,4.719839480E0
5.426812911E0,4.248259068E0,-1.336940765E0,-2.627677441E0,5.171054481E0
5.434838897E0,4.500293732E0,-1.531086922E0,-3.204222679E0,5.732705627E0
5.442895401E0,4.646205425E0,-1.451396942E0,-4.155691147E0,6.400277091E0
5.450921387E0,4.754131794E0,-1.280106544E0,-4.363862514E0,6.579037766E0
5.458977891E0,4.389721394E0,-9.945659637E-1,-3.827759027E0,5.908515426E0
5.467003877E0,4.047971725E0,-6.584663391E-1,-3.131691456E0,5.160149647E0
5.475029863E0,4.156223297E0,8.706855774E-2,-3.620406866E0,5.512632666E0
5.483086366E0,4.259725571E0,1.175489426E0,-5.044232368E0,6.706065725E0
5.491112352E0,4.659282684E0,1.994844913E0,-6.980865479E0,8.626749341E0
5.499138338E0,5.524988174E0,2.119616032E0,-7.863512516E0,9.841397032E0
5.507194842E0,5.972373009E0,1.173664093E0,-6.638796329E0,9.006683267E0
5.515220828E0,6.304191113E0,-1.171054840E-1,-5.031517506E0,8.066765627E0
5.523246814E0,6.701867104E0,-1.475165367E0,-3.401109219E0,7.658895446E0
5.531272801E0,7.287824154E0,-3.212906837E0,-2.587124586E0,8.374268020E0
5.539329304E0,8.289787292E0,-4.695355415E0,-2.212030411E0,9.780593764E0
5.547355290E0,9.463185310E0,-6.110571861E0,-2.458743811E0,1.152980424E1
5.555381277E0,1.051693726E1,-6.843123436E0,-3.157077789E0,1.293837114E1
5.563437779E0,1.160103321E1,-7.348182678E0,-4.708708286E0,1.451728948E1
5.571463767E0,1.208459473E1,-7.367963791E0,-6.341543674E0,1.550933578E1
5.579489753E0,1.219386578E1,-7.185011864E0,-7.046407700E0,1.581033268E1
5.587546256E0,1.256577873E1,-7.150189400E0,-6.456387520E0,1.583379119E1
5.595572242E0,1.315796757E1,-7.038320541E0,-5.458276272E0,1.588907947E1
5.603598228E0,1.357859421E1,-6.634914398E0,-3.879540205E0,1.560292094E1
5.611654732E0,1.355719185E1,-6.201498032E0,-1.687867641E0,1.500349712E1
5.619680718E0,1.365643215E1,-5.985974312E0,-2.386562824E-1,1.491264512E1
5.627737222E0,1.377375126E1,-5.357594490E0,3.666062355E-1,1.478358693E1
5.635763208E0,1.345865631E1,-4.186418533E0,6.120889187E-1,1.410801838E1
5.643789194E0,1.256552410E1,-2.839624405E0,9.449553490E-2,1.288273232E1
5.651845697E0,1.243209648E1,-1.122697830E0,-3.255564690E0,1.290023933E1
5.659871683E0,1.189037228E1,-1.605320930E0,-2.255269051E0,1.220836789E1
5.667928187E0,9.930614471E0,-3.296998978E0,4.695389271E-1,1.047414783E1
5.675954173E0,8.378219604E0,-5.658750534E0,1.267845392E0,1.018937944E1
5.684010677E0,7.871641636E0,-7.051332474E0,1.383306742E0,1.065821604E1
5.692036663E0,7.024001122E0,-8.463428497E0,3.055882215E0,1.141510533E1
5.700062649E0,6.980423927E0,-1.075535870E1,2.274256706E0,1.302214661E1
5.708119152E0,6.580694199E0,-1.234917068E1,1.976267815E0,1.413199162E1
5.716145138E0,5.190339088E0,-1.361291599E1,2.185657978E0,1.473187709E1
5.724201642E0,4.192401886E0,-1.386884308E1,2.323104858E0,1.467371317E1
5.732227628E0,2.736734867E0,-1.337159348E1,2.084657669E0,1.380706440E1
5.740253614E0,9.234675169E-1,-1.162037182E1,1.174620152E0,1.171603883E1
5.748310118E0,-9.006046057E-1,-8.881816864E0,6.953227520E-2,8.927630940E0
5.756336104E0,-2.569154739E0,-6.125597954E0,-2.859715223E-1,6.648705594E0
5.764392607E0,-3.709810019E0,-3.809814453E0,-4.131015539E-1,5.333669416E0
5.772418593E0,-4.316845894E0,-1.352177620E0,1.362631321E-1,4.525716565E0
5.780475097E0,-4.564097404E0,6.605358124E-1,2.050256729E-1,4.616202791E0
5.788501083E0,-4.721456528E0,2.507266998E0,6.856033802E-1,5.389674530E0
5.796527069E0,-4.518209457E0,4.127560616E0,1.396616220E0,6.277062227E0
5.804583573E0,-4.263762474E0,5.431581497E0,2.243637562E0,7.260554903E0
5.812609559E0,-3.865600586E0,6.887467384E0,2.808701515E0,8.382653462E0
5.820635545E0,-3.208446026E0,8.115543365E0,3.538264036E0,9.416766027E0
5.828692049E0,-3.185357332E0,8.879883766E0,3.765416145E0,1.015761762E1
5.836718035E0,-3.362538815E0,9.874217987E0,4.230722427E0,1.125636977E1
5.844774538E0,-3.509713650E0,1.052857685E1,4.330744267E0,1.191320135E1
5.852800524E0,-3.915732384E0,1.117169189E1,3.989843845E0,1.249233820E1
5.860826510E0,-3.929827213E0,1.149919128E1,4.029093742E0,1.280267701E1
5.868883014E0,-4.582760334E0,1.178531837E1,4.041552067E0,1.327514838E1
5.876909000E0,-5.143925190E0,1.176100731E1,4.226385593E0,1.351456971E1
5.884965504E0,-5.866533279E0,1.145697212E1,4.448752880E0,1.361873067E1
5.892991490E0,-6.878090858E0,1.082836342E1,4.788444042E0,1.369272743E1
5.901017476E0,-8.184655190E0,9.821304321E0,4.278605938E0,1.348158254E1
5.909073979E0,-9.546970367E0,8.929643631E0,2.994742870E0,1.341087855E1
5.917099965E0,-1.139465427E1,7.999535561E0,9.637298584E-1,1.395562576E1
5.925125951E0,-1.279922581E1,6.885104179E0,-1.367667794E0,1.459778600E1
5.933182455E0,-1.361896038E1,5.333387375E0,-4.529882908E0,1.531146439E1
5.941208441E0,-1.202553749E1,3.780213833E0,-8.623825073E0,1.527330768E1
5.949264945E0,-7.045182705E0,3.104336739E0,-1.795482635E1,1.953579523E1
5.957290931E0,7.309203148E-1,2.184613228E0,-2.001731491E1,2.014943363E1
5.965316918E0,9.443271637E0,1.323467731E0,-1.686769485E1,1.937643093E1
5.973373420E0,1.263119507E1,8.324918747E-1,-9.144880295E0,1.561630453E1
5.981399406E0,1.380969429E1,-1.254291534E-1,-4.495291233E0,1.452346488E1
5.989455910E0,1.382519722E1,-1.092473984E0,-1.300640106E0,1.392915081E1
5.997481896E0,1.120490074E1,-1.223678589E0,-7.128905058E-1,1.129404280E1
6.005507883E0,6.614401340E0,-1.088611603E0,-1.470891237E-1,6.704999293E0
6.013564386E0,1.308617115E0,-8.190765381E-1,2.538584948E0,2.971157799E0
6.021590372E0,-4.176577568E0,-1.471828461E0,2.295876741E0,4.988098757E0
6.029646875E0,-6.340106010E0,-4.945205688E0,-1.120502830E0,8.118345282E0
6.037672862E0,-2.056765318E0,-9.487638474E0,-2.141036749E0,9.941308050E0
6.045698849E0,8.034844398E-1,-1.198658943E1,-1.529634476E0,1.211047873E1
6.053755351E0,-1.335930586E0,-1.140747738E1,1.126198471E-1,1.148598859E1
6.061781338E0,-4.738784313E0,-9.092399597E0,2.924178362E0,1.066201793E1
6.069837841E0,-6.912738800E0,-5.951454163E0,-1.145102084E-1,9.122438104E0
6.077863827E0,-8.264568329E0,-1.499605179E0,1.774523735E0,8.584919326E0
6.085920331E0,-8.085880280E0,2.518208504E0,4.469161510E0,9.575815295E0
6.093946317E0,-7.991781235E0,4.665130138E0,4.056672573E0,1.010389028E1
6.102002820E0,-7.508855820E0,5.735552788E0,3.398942947E0,1.004152850E1
6.110028806E0,-7.027971745E0,5.495116234E0,2.529544353E0,9.272932864E0
6.118085310E0,-6.332627296E0,4.032210350E0,2.371169806E0,7.872949576E0
6.126111296E0,-6.185894966E0,2.025260448E0,2.554986715E0,6.992491225E0
6.134137282E0,-6.091669083E0,-1.515102386E-1,2.471524477E0,6.575699264E0
6.142193786E0,-6.147058487E0,-2.957530022E0,2.722976685E0,7.344924363E0
6.150219772E0,-6.098505020E0,-5.669260025E0,2.688456535E0,8.749861213E0
6.158276275E0,-5.626594543E0,-8.499449730E0,3.024443865E0,1.063233147E1
6.166302261E0,-4.295369148E0,-1.100892448E1,3.458416939E0,1.231289008E1
6.174328248E0,-2.353397608E0,-1.124559498E1,3.412630558E0,1.198532161E1
6.182384751E0,-1.930584431E0,-1.258217239E1,3.078009129E0,1.309627270E1
6.190410737E0,-2.056218624E0,-1.379657459E1,2.766580105E0,1.422067055E1
6.198467241E0,-1.808226347E0,-1.416971302E1,2.154760838E0,1.444622594E1
6.206493227E0,-9.495124817E-1,-1.416989422E1,2.007838488E0,1.434290387E1
6.214549730E0,8.207255006E-1,-1.354389381E1,2.368027210E0,1.377382310E1
6.222575716E0,2.470996857E0,-1.284259605E1,2.863875151E0,1.338804989E1
6.230601703E0,4.695991516E0,-1.309796238E1,3.340688705E0,1.430975736E1
6.238627689E0,8.075908661E0,-1.300289822E1,3.578105450E0,1.571936708E1
6.246684192E0,1.071195221E1,-1.374569893E1,4.841684341E0,1.808679260E1
6.254710179E0,1.328034973E1,-1.427070522E1,5.264561653E0,2.019248192E1
6.262766682E0,1.573081493E1,-1.488951969E1,4.705315590E0,2.216520539E1
6.270792669E0,2.029235458E1,-1.550006866E1,3.278640747E0,2.574453861E1
6.278849171E0,3.240951920E1,-1.127441597E1,-1.685222626E1,3.822939863E1
6.286875158E0,3.245015335E1,-7.385704041E0,-1.961856842E1,3.863223141E1
6.294931661E0,2.478330231E1,-7.240473747E0,-1.354204655E1,2.915516349E1
6.302957647E0,2.097552109E1,-3.665922165E0,-8.655481339E0,2.298540466E1
6.310983634E0,1.528272057E1,-4.093589783E-1,-4.460720062E0,1.592567569E1
6.319040137E0,1.266380882E1,2.897041321E0,-1.627594948E0,1.309251571E1
6.327066124E0,1.099277020E1,6.533218384E0,-3.050637484E0,1.314649490E1
6.335122627E0,1.084085941E1,1.174226665E1,-1.229498100E1,2.016362112E1
6.343148613E0,1.099413490E1,1.465210342E1,-1.238973427E1,2.211471574E1
6.351205116E0,1.036047935E1,1.587716770E1,-9.846091270E0,2.136280646E1
6.359231102E0,1.029728413E1,1.565217209E1,-7.333316326E0,2.011969383E1
6.367257089E0,1.010378647E1,1.485593796E1,-4.352277756E0,1.848587881E1
6.375313592E0,9.597867966E0,1.429673195E1,-2.881083250E0,1.745898779E1
6.383339579E0,9.649886131E0,1.424922180E1,-3.259675741E0,1.751531074E1
6.391396082E0,1.002915287E1,1.471003532E1,-3.987686157E0,1.824474410E1
6.399422068E0,9.899380684E0,1.517525101E1,-5.029046059E0,1.880365085E1
6.407448055E0,9.183914185E0,1.520345116E1,-5.247632027E0,1.852098401E1
6.415504557E0,7.679786682E0,1.472106743E1,-4.998194695E0,1.733986447E1
6.423530544E0,6.620562077E0,1.413994408E1,-4.365533829E0,1.621196306E1
6.431587047E0,5.808179855E0,1.331428719E1,-3.440301895E0,1.492785563E1
6.439613034E0,4.991568089E0,1.202460957E1,-2.567500591E0,1.327023159E1
6.447669537E0,4.907329082E0,1.043828392E1,-1.949449539E0,1.169786320E1
6.455695523E0,5.216963768E0,8.924102783E0,-1.775526166E0,1.048850869E1
6.463721510E0,5.934659958E0,7.342883110E0,-1.704661012E0,9.593955928E0
6.471778012E0,7.999618053E0,4.926155567E0,-1.113636374E0,9.460501237E0
6.479803999E0,1.095379353E1,1.213603020E0,-2.770481110E-1,1.102429955E1
6.487860502E0,1.298250771E1,-3.581847191E0,1.042252779E0,1.350782834E1
6.495886489E0,1.533977890E1,-1.072946739E1,1.383268356E0,1.877082093E1
6.503912475E0,1.890406227E1,-1.845936584E1,5.016271591E0,2.689376765E1
6.511968978E0,2.026764297E1,-2.662639618E1,7.864769459E0,3.437436434E1
6.519994965E0,1.898211098E1,-3.143957901E1,9.403340340E0,3.791029511E1
6.528051467E0,1.670890427E1,-3.301797485E1,1.167806339E1,3.880401152E1
6.536077454E0,1.290214348E1,-3.204553223E1,1.207461643E1,3.659477837E1
6.544103441E0,9.213098526E0,-2.876565170E1,1.154668236E1,3.233681765E1
6.552159943E0,7.471314907E0,-2.628614426E1,5.141762257E0,2.780682732E1
6.560185930E0,2.873796463E0,-2.048947906E1,5.075326920E0,2.130343638E1
6.568242433E0,-2.227445602E0,-1.417328072E1,-2.161121368E0,1.450909528E1
6.576268420E0,-6.347597122E0,-9.106711388E0,-1.350212860E1,1.747946390E1
6.584294406E0,-1.052907848E1,-5.244318008E0,-1.985667992E1,2.307925697E1
6.592350910E0,-1.039414215E1,-2.951271057E0,-1.606735992E1,1.936254753E1
6.600376896E0,-9.160537720E0,-7.028865814E-1,-1.146026802E1,1.468833700E1
6.608402882E0,-7.886481285E0,9.404706955E-1,-8.133900642E0,1.136843929E1
6.616459385E0,-7.275817871E0,2.445003986E0,-5.682113647E0,9.549973073E0
6.624485371E0,-6.682324409E0,3.707454681E0,-3.875630379E0,8.568499901E0
6.632541875E0,-6.345946789E0,4.885038376E0,-2.490038872E0,8.386592524E0
6.640567861E0,-5.917161942E0,6.184000015E0,-1.089687347E0,8.627982391E0
6.648624365E0,-5.545886040E0,7.391421795E0,5.322821140E-1,9.255986839E0
6.656650351E0,-5.154639244E0,8.243685722E0,1.028152943E0,9.776796945E0
6.664676337E0,-4.626137733E0,9.277684212E0,1.499096513E0,1.047491599E1
6.672732840E0,-4.100731850E0,1.015991592E1,8.878881931E-1,1.099218990E1
6.680758826E0,-3.710768938E0,1.095033741E1,-9.595037699E-1,1.160173879E1
6.688815330E0,-2.539896011E0,1.182127762E1,-1.750159025E0,1.221706728E1
6.696841316E0,-1.833449960E0,1.217295074E1,-2.635485888E0,1.258920388E1
6.704867302E0,-1.069749475E0,1.232208824E1,-3.465015888E0,1.284463147E1
6.712923806E0,7.800035477E-1,1.216947174E1,-3.854279518E0,1.278905464E1
6.720949792E0,3.114904404E0,1.068757439E1,-3.234932423E0,1.159274185E1
6.729006295E0,4.414074421E0,8.962607384E0,-1.345139265E0,1.008076305E1
6.737032281E0,3.920433760E0,8.343251228E0,1.980797887E0,9.428849463E0
6.745088785E0,2.857641697E0,7.436360359E0,2.794262409E0,8.442361866E0
6.753114771E0,1.785179615E0,6.326478481E0,2.477949142E0,7.025057166E0
6.761171274E0,9.850137234E-1,5.833179951E0,2.766343594E0,6.530612318E0
6.769197261E0,-1.333869696E-1,5.096890450E0,2.905208826E0,5.868246984E0
6.777253763E0,-1.645420790E-1,4.740820885E0,1.936693907E0,5.123791569E0
6.785279750E0,-9.245034456E-1,5.017942905E0,6.911534071E-1,5.148995111E0
6.793336253E0,-1.256751299E0,5.000959396E0,-5.053800344E-1,5.181160844E0
6.801362240E0,-1.406131387E0,4.001542091E0,-3.957283497E-1,4.259829282E0
6.809418743E0,-1.782907009E0,1.638970852E0,5.691015720E-2,2.422441253E0
6.817444729E0,-1.495468855E0,-2.066402435E0,-1.912839174E0,3.188322416E0
6.825470716E0,-1.391774654E0,-1.073015022E1,-4.923804283E0,1.188768308E1
6.833527218E0,-1.219044924E0,-1.595327187E1,-2.059432507E0,1.613177659E1
6.841553206E0,-3.885029554E0,-1.564087200E1,-2.146657705E-1,1.611758087E1
6.849579192E0,-7.957095146E0,-1.431730270E1,-5.095115662E0,1.715402937E1
6.857635695E0,-1.573542213E1,-1.250419617E1,-1.290578747E1,2.388551406E1
6.865661681E0,-1.332666111E1,-1.092860126E1,-5.269884109E0,1.802237222E1
6.873687667E0,-8.041209221E0,-1.030233479E1,-4.448574781E-1,1.307658388E1
6.881744171E0,-6.269973755E0,-9.805591583E0,3.119874001E-1,1.164300362E1
6.889770157E0,-4.781062603E0,-9.243695259E0,8.249239922E-1,1.043958626E1
6.897826661E0,-3.666959286E0,-9.176941872E0,1.524568081E0,9.999357997E0
6.905852647E0,-2.043475628E0,-1.051902771E1,2.311907530E0,1.096223759E1
6.913909150E0,-1.906158179E-1,-1.244522858E1,3.837352991E0,1.302479661E1
6.921935136E0,1.497354865E0,-1.346745682E1,4.951720238E0,1.442684990E1
6.929991639E0,3.445659161E0,-1.295299339E1,5.432604313E0,1.446256528E1
6.938017626E0,5.115605831E0,-1.157373142E1,5.234599113E0,1.369385665E1
6.946043612E0,6.670802116E0,-1.079559803E1,5.054898262E0,1.366003419E1
6.954100116E0,8.561808586E0,-1.063039494E1,3.726008892E0,1.414895774E1
6.962126102E0,1.005925369E1,-1.084474945E1,3.119369745E0,1.511713078E1
6.970152088E0,1.186275578E1,-1.177910233E1,2.412694216E0,1.689062816E1
6.978208591E0,1.391208744E1,-1.252359009E1,1.569652319E0,1.878430978E1
6.986234577E0,1.514716053E1,-1.275619888E1,3.648982048E-1,1.980631800E1
6.994291081E0,1.644381142E1,-1.204368305E1,-2.775415421E0,2.057066275E1
7.002317067E0,2.234279442E1,-5.488679886E0,-2.469405174E1,3.375088533E1
7.010343053E0,2.360807991E1,-3.251023293E0,-2.497144699E1,3.451787587E1
7.018399557E0,1.773743820E1,-4.701272964E0,-1.212156677E1,2.199206817E1
7.026425543E0,1.395477104E1,-1.613244057E0,-6.001914024E0,1.527616323E1
7.034482046E0,1.390322399E1,3.749155045E0,-1.620807457E1,2.168080908E1
7.042508032E0,1.185394859E1,6.421432495E0,-1.468360710E1,1.993387092E1
7.050534019E0,1.143053913E1,9.557506561E0,-8.678944588E0,1.724317940E1
7.058560005E0,1.102584648E1,1.197736454E1,-5.312422752E0,1.712449671E1
7.066616508E0,1.297308159E1,1.521098328E1,-5.434342861E0,2.071731017E1
7.074673012E0,1.743472481E1,1.915200043E1,-1.186239147E1,2.848657721E1
7.082698998E0,1.841766548E1,2.113452721E1,-1.206032658E1,3.051770173E1
7.090724984E0,1.523820305E1,1.987166977E1,-8.356874466E0,2.639930761E1
7.098781488E0,1.321765232E1,1.808648682E1,-4.296195984E0,2.280974875E1
7.106807474E0,1.199291611E1,1.660284424E1,-2.520162106E0,2.063578665E1
7.114833460E0,1.142792320E1,1.514823341E1,-2.219345331E0,1.910476113E1
7.122889963E0,1.101923466E1,1.393518829E1,-2.705307484E0,1.797030033E1
7.130915949E0,1.019535637E1,1.239939785E1,-3.369712114E0,1.640260096E1
7.138941935E0,8.670990944E0,1.011929321E1,-3.469102383E0,1.377028868E1
7.146998439E0,7.722164631E0,7.871875286E0,-2.543831587E0,1.131677190E1
7.155024425E0,7.860051155E0,5.367477417E0,-1.164323807E0,9.588840801E0
7.163050412E0,9.790946007E0,1.996540070E0,3.275911808E-1,9.997805356E0
7.171106915E0,1.215205860E1,-1.891718864E0,2.562536955E0,1.256255245E1
7.179132902E0,1.512750721E1,-7.782333374E0,4.112272263E0,1.750191333E1
7.187158888E0,1.767484093E1,-1.527167034E1,5.768062592E0,2.406022574E1
7.195215390E0,1.967943764E1,-2.356829071E1,8.205090523E0,3.178156861E1
7.203241377E0,1.984038734E1,-2.996891785E1,1.029516125E1,3.738672695E1
7.211267363E0,1.828225517E1,-3.287396622E1,1.254955673E1,3.965387602E1
7.219323867E0,1.419972992E1,-3.306404495E1,1.283724594E1,3.820547450E1
7.227349853E0,9.661573410E0,-3.038433647E1,1.298864555E1,3.442758802E1
7.235406357E0,4.954479694E0,-2.624513435E1,1.148234272E1,2.907229163E1
7.243432343E0,9.946146011E-1,-2.199565315E1,6.152266979E0,2.286150487E1
7.251488845E0,-1.583897591E0,-1.895631409E1,4.410954952E0,1.952708629E1
7.259514833E0,-5.744936466E0,-1.392133236E1,-8.166928291E-1,1.508226697E1
7.267540819E0,-9.912370682E0,-9.884075165E0,-7.290781021E0,1.578307709E1
7.275597322E0,-1.325786209E1,-6.544207573E0,-1.140456104E1,1.867248169E1
7.283623308E0,-1.351722336E1,-3.462877274E0,-1.102371216E1,1.778283094E1
7.291649294E0,-1.259286690E1,-1.697562218E0,-9.842141151E0,1.607264000E1
7.299705798E0,-1.100134277E1,2.419075966E-1,-7.093136311E0,1.309200691E1
7.307731784E0,-9.781448364E0,1.877736092E0,-4.243825436E0,1.082648047E1
7.315757770E0,-8.420444489E0,3.251058578E0,-1.716654301E0,9.188044909E0
7.323814274E0,-7.683505058E0,4.550401688E0,5.806388855E-1,8.948717618E0
7.331840260E0,-7.135702610E0,5.687537193E0,2.086897373E0,9.360634151E0
7.339866246E0,-6.384057522E0,7.087368965E0,3.078083992E0,1.002305295E1
7.347922749E0,-6.179459572E0,8.431629181E0,2.933830976E0,1.085750687E1
7.355948735E0,-5.735543251E0,9.890052795E0,2.712874889E0,1.175028897E1
7.363974721E0,-4.745692253E0,1.151188946E1,2.397013903E0,1.268033397E1
7.372031225E0,-4.128492355E0,1.236984634E1,-2.699684501E-1,1.304340564E1
7.380057211E0,-3.588469744E0,1.404880238E1,-5.393969059E0,1.547064528E1
7.388083198E0,-3.345559835E0,1.532642365E1,-9.049364090E0,1.811030157E1
7.396139701E0,-2.204857588E0,1.614440155E1,-1.273329258E1,2.067945450E1
7.404165688E0,3.321411610E-1,1.465855312E1,-1.132078457E1,1.852413725E1
7.412222190E0,2.831588507E0,1.088495255E1,-7.754097462E0,1.366111682E1
7.420248176E0,3.937629461E0,7.203404427E0,-3.228024483E0,8.821230253E0
7.428274164E0,3.066097260E0,7.374287128E0,2.727004528E0,8.439053072E0
7.436330666E0,2.465120077E0,7.618796349E0,3.975924015E0,8.940405280E0
7.444356653E0,2.288080931E0,6.403434277E0,2.780277252E0,7.346375057E0
7.452413156E0,1.970604062E0,5.465069294E0,4.075277328E0,7.096347516E0
7.460439143E0,1.479438663E0,3.448027611E0,4.579102993E0,5.919950792E0
7.468465129E0,8.622969389E-1,1.050504684E0,3.707149506E0,3.948426720E0
7.476521632E0,7.396020293E-1,-2.795362473E0,3.615906715E0,4.629885948E0
7.484547619E0,-7.556929588E-1,-9.688221931E0,4.489681721E0,1.070466992E1
7.492573605E0,-2.509552956E0,-1.385249996E1,4.210524082E0,1.469415272E1
7.500630108E0,-3.274117470E0,-1.268037796E1,3.738677025E0,1.361945433E1
7.508656094E0,-3.758372784E0,-8.811385155E0,2.682581425E0,9.947970518E0
7.516712597E0,-4.163630962E0,-4.887388229E0,1.718454719E0,6.646463203E0
7.524738584E0,-4.810654163E0,-3.310617447E0,9.176620245E-1,5.911402960E0
7.532764570E0,-6.167474270E0,-4.384163857E0,2.268470526E-1,7.570342870E0
7.540821074E0,-8.817813873E0,-5.456391335E0,-1.263978958E0,1.044622854E1
7.548847060E0,-1.440217495E1,-7.178614616E0,-9.286540031E0,1.857942348E1
7.556903563E0,-1.278125000E1,-1.117745972E1,-3.536991596E0,1.734376738E1
7.564929549E0,-7.381486893E0,-1.096257877E1,1.458584309E0,1.329631341E1
7.572955535E0,-4.874236584E0,-1.129428768E1,2.058798313E0,1.247227994E1
7.581012039E0,-3.371650696E0,-1.198739052E1,2.914210796E0,1.278898684E1
7.589038025E0,-2.016886473E0,-1.220208263E1,3.782361031E0,1.293309347E1
7.597094529E0,-3.176666498E-1,-1.187591171E1,4.423773766E0,1.267706454E1
7.605120515E0,1.568467617E0,-1.144268799E1,4.333477974E0,1.233589196E1
7.613146501E0,3.733167887E0,-1.121984768E1,4.376538277E0,1.260855312E1
7.621203004E0,5.471352100E0,-1.128527164E1,4.191855431E0,1.322364178E1
7.629228990E0,7.005306721E0,-1.159419918E1,3.721115828E0,1.404800626E1
7.637254977E0,8.667245865E0,-1.272659588E1,3.293055296E0,1.574584411E1
7.645311480E0,1.097151375E1,-1.346619225E1,2.180810452E0,1.750623837E1
7.653337466E0,1.227641678E1,-1.387486362E1,1.850627422E0,1.861846050E1
7.661393970E0,1.371557426E1,-1.394470882E1,5.964367390E-1,1.956853644E1
7.669419956E0,1.977341461E1,-1.192164040E1,-2.574318314E1,3.458070145E1
7.677445942E0,2.941938019E1,-5.515140533E0,-3.002746964E1,4.239770794E1
7.685502446E0,1.969025230E1,-6.682669640E0,-1.962829590E1,2.859430204E1
7.693528432E0,1.599522209E1,-5.174367905E0,-3.217970610E0,1.711655771E1
7.701554418E0,1.270664501E1,-3.036697388E0,3.382515907E-1,1.306884741E1
7.709610921E0,1.262087250E1,1.350643158E0,-5.232142448E0,1.372901942E1
7.717636907E0,1.070299721E1,4.055294991E0,-5.305141449E0,1.261523256E1
7.725693411E0,1.192784023E1,7.248816013E0,-3.419318676E0,1.437047134E1
7.733719397E0,1.256871891E1,9.133072853E0,-3.763147831E0,1.598583737E1
7.741745383E0,1.698423958E1,1.241993046E1,-1.173398018E1,2.409160346E1
7.749771370E0,1.855847168E1,1.686733246E1,-1.625840187E1,2.988744564E1
7.757827873E0,1.861021805E1,1.824947357E1,-1.134867859E1,2.842843659E1
7.765853860E0,1.653220177E1,1.899500465E1,-5.157681465E0,2.570458277E1
7.773910362E0,1.411842632E1,1.939604187E1,-2.161798716E0,2.408754400E1
7.781936349E0,1.273721027E1,2.015841675E1,-1.324677944E0,2.388206572E1
7.789962335E0,1.132634544E1,1.976743698E1,-1.281052351E0,2.281838647E1
7.798018838E0,9.659596443E0,1.831654739E1,-1.438715339E0,2.075749536E1
7.806044825E0,9.726442337E0,1.518417740E1,-1.405290604E0,1.808695014E1
7.814070811E0,9.905817032E0,1.261766338E1,-1.631682396E0,1.612429930E1
7.822127315E0,1.096013832E1,9.507519722E0,-2.309725523E0,1.469191598E1
7.830153301E0,1.243490887E1,6.243950844E0,-5.412106514E-1,1.392504182E1
7.838179287E0,1.481555653E1,1.422018051E0,3.166420460E-1,1.488701154E1
7.846235791E0,1.746302795E1,-5.276700974E0,2.444648266E0,1.840590187E1
7.854261777E0,2.090090942E1,-1.435073853E1,4.973485947E0,2.583654918E1
7.862318280E0,2.422871399E1,-2.533960342E1,7.910640717E0,3.594028825E1
7.870344266E0,2.428012466E1,-3.254607391E1,1.001525116E1,4.182196357E1
7.878400770E0,2.195755196E1,-3.685674667E1,1.302038383E1,4.483396323E1
7.886426756E0,1.857345390E1,-3.901615143E1,1.491252422E1,4.571232482E1
7.894452742E0,1.366813183E1,-3.906332016E1,1.650488853E1,4.455527079E1
7.902509246E0,8.187536240E0,-3.556827927E1,1.548279762E1,3.964662989E1
7.910535232E0,3.210837364E0,-2.980838394E1,1.247383308E1,3.247223031E1
7.918591735E0,-7.894496918E-1,-2.173893356E1,8.336531639E0,2.329597010E1
7.926617721E0,-3.573584557E0,-1.529994202E1,2.050003529E0,1.584491233E1
7.934643707E0,-5.377666950E0,-9.236466408E0,-1.106046438E0,1.074499661E1
7.942700211E0,-8.426477432E0,-5.368593216E0,-9.694625854E0,1.392167682E1
7.950726197E0,-1.214093876E1,-3.007642746E0,-1.733750534E1,2.137843306E1
7.958752183E0,-1.409175682E1,-1.414730072E0,-1.425548363E1,2.009472281E1
7.966808687E0,-1.322131157E1,3.981008530E-1,-9.634979248E0,1.636442449E1
7.974834673E0,-1.184860802E1,2.194270134E0,-6.385936737E0,1.363761421E1
7.982860659E0,-1.057391930E1,3.785337448E0,-3.692777157E0,1.182256960E1
7.990917162E0,-9.441911697E0,4.699007034E0,-1.859481573E0,1.070924999E1
7.998943148E0,-8.704349518E0,5.772452354E0,2.228021622E-2,1.044449152E1
8.006969136E0,-8.305606842E0,7.100570679E0,1.277230620E0,1.100147840E1
8.015025638E0,-8.868207932E0,8.963175774E0,2.256012440E0,1.280910707E1
8.023051624E0,-9.594444275E0,1.215628624E1,3.545221806E0,1.588701526E1
8.031077611E0,-1.224800873E1,1.512568665E1,4.472101927E-1,1.946792519E1
8.039134114E0,-1.456750774E1,1.810380173E1,-1.821956515E0,2.330835568E1
8.047160101E0,-1.183465290E1,1.870300674E1,-5.927301407E0,2.291275567E1
8.055186087E0,-8.888692856E0,1.887185669E1,-8.069595337E0,2.236681033E1
8.063212073E0,-6.745943546E0,1.862368202E1,-8.784265518E0,2.166823959E1
8.071268577E0,-5.604317665E0,1.784206009E1,-8.843780518E0,2.068719262E1
8.079294563E0,-3.280695200E0,1.624948311E1,-7.503886223E0,1.819661976E1
8.087320549E0,-1.626127958E-1,1.209701729E1,-7.349409103E0,1.415549661E1
8.095377052E0,1.710012674E0,9.229373932E0,-5.351035595E0,1.080458553E1
8.103403038E0,2.569406748E0,7.903760910E0,-1.205120564E0,8.397833240E0
8.111429024E0,2.196455956E0,7.660897732E0,1.151495218E0,8.052311100E0
8.119485528E0,-4.103101492E-1,9.013290405E0,1.665773988E0,9.175105521E0
8.127511514E0,-1.622520566E0,8.982028008E0,9.771318436E-1,9.179552645E0
8.135537500E0,-2.405802727E0,8.841249466E0,5.442886353E-1,9.178879507E0
8.143594004E0,-2.597805023E0,8.689707756E0,4.279688597E-1,9.079800062E0
8.151619990E0,-3.025886059E0,7.337646484E0,-3.120125532E-1,7.943197983E0
8.159645977E0,-3.911218882E0,5.442670822E0,-1.537566185E0,6.876365944E0
8.167702480E0,-4.385992050E0,8.191432953E-1,-1.323168278E0,4.653890447E0
8.175728466E0,-6.014396667E0,-4.209302902E0,1.310823679E0,7.457174861E0
8.183754453E0,-6.206927299E0,-1.360967445E1,8.481805325E-1,1.498227604E1
8.191810955E0,-8.967823029E0,-2.028338432E1,1.441509485E0,2.222420930E1
8.199836942E0,-1.267709923E1,-2.140081406E1,1.763087034E0,2.493616175E1
8.207893445E0,-1.265751934E1,-2.283755875E1,1.879967928E0,2.617825748E1
8.215919432E0,-1.220174503E1,-2.518285370E1,3.502250433E0,2.820149748E1
8.223945418E0,-1.116501808E1,-2.625972366E1,4.584488869E0,2.890066182E1
8.231971404E0,-8.938734055E0,-2.469937515E1,5.161895752E0,2.676948388E1
8.240027908E0,-5.953401089E0,-2.262159920E1,5.318315506E0,2.398883521E1
8.248053894E0,-2.851862669E0,-2.034447861E1,5.243061066E0,2.120190133E1
8.256110397E0,9.097397327E-2,-1.777961540E1,5.277758121E0,1.854663665E1
8.264136383E0,2.437181711E0,-1.512485218E1,4.934994698E0,1.609519123E1
8.272162369E0,5.065922260E0,-1.346831989E1,5.271980762E0,1.532491404E1
8.280218873E0,7.033796310E0,-1.273728085E1,5.570083618E0,1.558006564E1
8.288244859E0,9.399378777E0,-1.221226406E1,5.315955162E0,1.630175126E1
8.296270845E0,1.214335155E1,-1.200846481E1,3.923704386E0,1.752311817E1
8.304327349E0,1.426139545E1,-1.222920322E1,3.426140785E0,1.909657698E1
8.312353335E0,1.678649902E1,-1.308107853E1,2.286804676E0,2.140398656E1
8.320409838E0,1.882615852E1,-1.355165482E1,9.303331375E-1,2.321501912E1
8.328435824E0,2.960238266E1,-8.237156868E0,-4.304324341E1,5.288546696E1
8.336461811E0,3.455629730E1,-4.249590874E0,-4.324065781E1,5.551532395E1
8.344518314E0,2.313681221E1,-7.889654160E0,-1.704344177E1,2.979996023E1
8.352544300E0,1.892698669E1,-5.746526718E0,-2.235994339E-1,1.978139003E1
8.360570286E0,1.557707024E1,-2.137945175E0,2.502944946E0,1.592107597E1
8.368626790E0,1.217341137E1,2.386849403E0,2.825192690E0,1.272284199E1
8.376652776E0,1.011707401E1,6.980059624E0,6.928467751E-1,1.231082676E1
8.384709280E0,9.582310677E0,1.299047852E1,-1.137731552E0,1.618232502E1
8.392735266E0,9.889605522E0,1.717431450E1,1.683596134E0,1.988959205E1
8.400761252E0,1.107094574E1,1.789719200E1,1.966007352E0,2.113623680E1
8.408817755E0,1.315102005E1,1.784001160E1,-9.755278230E-1,2.218483709E1
8.416843741E0,1.798258972E1,2.071126556E1,-1.339089680E1,3.052287947E1
8.424869728E0,1.950178528E1,2.254162216E1,-1.704829788E1,3.433786277E1
8.432926231E0,1.680082893E1,2.115578079E1,-9.587862968E0,2.866639200E1
8.440952218E0,1.500364113E1,2.024319649E1,-3.660344601E0,2.546162551E1
8.448978204E0,1.378566360E1,1.934988022E1,-2.360194206E0,2.387536182E1
8.457034707E0,1.296422100E1,1.791173172E1,-2.452214956E0,2.224667430E1
8.465060694E0,1.173816013E1,1.664808464E1,-1.359632969E0,2.041547764E1
8.473086680E0,1.071477032E1,1.474326134E1,-1.378658533E0,1.827760261E1
8.481143183E0,9.686862946E0,1.239125729E1,-1.589964509E0,1.580843313E1
8.489169169E0,8.851887703E0,1.044216824E1,-1.499580383E0,1.377111233E1
8.497195156E0,8.828371048E0,7.828452110E0,-1.278872013E0,1.186845868E1
8.505251659E0,1.104842854E1,4.369128704E0,2.193791866E-1,1.188297883E1
8.513277645E0,1.447221661E1,-2.513999939E-1,2.202669621E0,1.464103852E1
8.521334149E0,1.911586189E1,-6.860767365E0,3.695777655E0,2.064328165E1
8.529360135E0,2.414617538E1,-1.588667965E1,6.570549965E0,2.964112857E1
8.537386121E0,2.912673378E1,-2.943290710E1,9.405921936E0,4.246332546E1
8.545412107E0,2.905226707E1,-3.848804092E1,1.180126858E1,4.964507485E1
8.553468611E0,2.463770676E1,-4.098007202E1,1.491673279E1,5.008883922E1
8.561494597E0,1.880095291E1,-3.934634018E1,1.762273598E1,4.703372342E1
8.569551100E0,1.454637909E1,-3.683936691E1,1.942143059E1,4.411267466E1
8.577577086E0,8.862251282E0,-3.237148285E1,1.790165138E1,3.803842165E1
8.585603072E0,3.409968376E0,-2.604179382E1,1.258792496E1,2.912488222E1
8.593659576E0,8.256435394E-3,-1.980965805E1,8.619280815E0,2.160357892E1
8.601685562E0,-2.865455151E0,-1.457459068E1,3.827495098E0,1.533881500E1
8.609711549E0,-6.991888046E0,-1.040462875E1,-3.727987289E0,1.307825245E1
8.617737535E0,-1.402102852E1,-6.901653290E0,-1.794894218E1,2.379887780E1
8.625794038E0,-1.887857819E1,-4.868454933E0,-1.946911049E1,2.755265561E1
8.633820025E0,-1.639891624E1,-2.494656086E0,-1.369009590E1,2.150735894E1
8.641846011E0,-1.423238564E1,-1.805558205E-1,-8.324407578E0,1.648906191E1
8.649871997E0,-1.245388412E1,1.477671146E0,-5.362168312E0,1.363948646E1
8.657928501E0,-1.112244034E1,2.850036144E0,-2.324365377E0,1.171469417E1
8.665954487E0,-1.028274918E1,3.965926170E0,-2.766401768E-1,1.102451953E1
8.674010990E0,-9.983613968E0,5.253335953E0,2.215757608E0,1.149694169E1
8.682036976E0,-1.033569145E1,7.439142704E0,4.013623714E0,1.335202371E1
8.690062962E0,-1.047205925E1,9.518424988E0,4.960254192E0,1.499561805E1
8.698119466E0,-1.103810978E1,1.161785507E1,4.728013992E0,1.670833745E1
8.706145452E0,-1.165903282E1,1.446372604E1,-2.980234146E0,1.881526542E1
8.714171438E0,-1.175209236E1,1.578647423E1,-5.221960068E0,2.036156454E1
8.722227942E0,-8.700239182E0,1.594562340E1,-9.839883804E0,2.065866357E1
8.730253928E0,-6.374208450E0,1.622900772E1,-1.058775616E1,2.039881873E1
8.738310431E0,-4.136649132E0,1.627166939E1,-1.154569244E1,2.037601788E1
8.746336417E0,-1.439769745E0,1.509814644E1,-9.285302162E0,1.778324490E1
8.754362403E0,1.807963490E0,1.136161518E1,-9.276876450E0,1.477888589E1
8.762418907E0,3.333278656E0,7.623753548E0,-7.693480968E0,1.133234372E1
8.770444893E0,3.955548286E0,6.714108467E0,-2.009350061E0,8.047552574E0
8.778470880E0,3.577056646E0,6.739770412E0,1.749046206E0,7.828090578E0
8.786527383E0,1.037325144E0,7.809564590E0,2.479931116E0,8.259261522E0
8.794553369E0,-6.341542602E-1,8.116982460E0,1.385297656E0,8.258729047E0
8.802579356E0,-1.945102334E0,8.354844093E0,2.404016972E0,8.908767620E0
8.810635858E0,-2.401519775E0,7.960896492E0,2.476316929E0,8.676134838E0
8.818661845E0,-3.004681349E0,6.738147259E0,1.049036741E0,7.451927038E0
8.826687832E0,-3.692509174E0,4.134705544E0,-2.841261625E-1,5.550778469E0
8.834744334E0,-4.052050591E0,-2.115907669E-1,1.316988587E0,4.265951662E0
8.842770321E0,-5.480461121E0,-6.488956451E0,2.962141752E0,8.995348447E0
8.850796307E0,-4.860434055E0,-1.255608749E1,2.003965378E0,1.361231169E1
8.858852811E0,-7.231131554E0,-1.852082062E1,3.711465120E0,2.022585062E1
8.866878797E0,-9.940547943E0,-1.995373535E1,4.362306595E0,2.271554020E1
8.874904783E0,-9.900675774E0,-1.928867340E1,3.845114708E0,2.201956424E1
8.882961287E0,-1.084011745E1,-2.018135071E1,2.950280905E0,2.309760205E1
8.890987273E0,-1.253612518E1,-2.182435989E1,9.818496704E-1,2.518771820E1
8.899013259E0,-1.123816490E1,-2.137985229E1,9.084703922E-1,2.417063824E1
8.907069762E0,-6.992771149E0,-1.809375381E1,2.334347725E0,1.953796189E1
8.915095748E0,-3.803313255E0,-1.536753941E1,3.154319763E0,1.614237257E1
8.923121734E0,-1.326169968E0,-1.370855904E1,4.016135216E0,1.434617230E1
8.931178238E0,1.087369680E0,-1.236992073E1,4.489607811E0,1.320431331E1
8.939204224E0,2.809107304E0,-1.144675636E1,4.479031563E0,1.260876833E1
8.947230211E0,5.331401348E0,-1.115025139E1,4.766914368E0,1.324671352E1
8.955286714E0,7.775672436E0,-1.125414276E1,4.515475273E0,1.440507994E1
8.963312700E0,1.040119362E1,-1.129295254E1,3.243385315E0,1.569188179E1
8.971338687E0,1.270703316E1,-1.154901409E1,3.093351126E0,1.744755683E1
8.979395189E0,1.511023712E1,-1.209825516E1,2.702212095E0,1.954453872E1
8.987421177E0,1.796192169E1,-1.275218010E1,1.713696003E0,2.209491983E1
8.995477679E0,2.041609764E1,-1.305740738E1,-1.662726402E-1,2.423511042E1
9.003503665E0,3.025442123E1,-3.368400574E0,-3.376972580E1,4.546504709E1
9.011560169E0,2.882128525E1,-3.687620163E0,-3.487014389E1,4.538933752E1
9.019586155E0,2.179570007E1,-4.486303329E0,-1.386778259E1,2.622012306E1
9.027612142E0,1.636746216E1,-2.037194252E0,5.961074829E-1,1.650452429E1
9.035668645E0,1.252565956E1,1.424723148E0,2.574692011E0,1.286666322E1
9.043694632E0,1.029001999E1,5.246896267E0,3.198729992E0,1.198525366E1
9.051720618E0,9.212211609E0,9.870808601E0,1.167001486E0,1.355210676E1
9.059777120E0,1.134035397E1,1.522141457E1,-1.046774149E0,1.901028210E1
9.067803107E0,1.295088959E1,1.911843872E1,-1.059077740E0,2.311626886E1
9.075829093E0,1.450902557E1,1.999533272E1,-3.852103233E0,2.500327684E1
9.083885597E0,1.842457199E1,2.189880562E1,-1.226398563E1,3.113563688E1
9.091911583E0,1.995486069E1,2.231105423E1,-1.576997852E1,3.383299911E1
9.099968087E0,1.880724525E1,2.131634331E1,-9.866724968E0,3.009071664E1
9.107994073E0,1.666561127E1,1.969345474E1,-3.622038364E0,2.605175465E1
9.116020059E0,1.514170170E1,1.823427582E1,-2.243834972E0,2.380745136E1
9.124046045E0,1.351664448E1,1.656147385E1,-2.493025064E0,2.152201821E1
9.132102548E0,1.223854733E1,1.501577091E1,-2.340867043E0,1.951243386E1
9.140128534E0,1.074671555E1,1.331027031E1,-1.941269636E0,1.721696020E1
9.148154521E0,9.740915298E0,1.139717007E1,-1.210965633E0,1.504152101E1
9.156211024E0,9.448370934E0,8.891753197E0,-7.785515785E-1,1.299773560E1
9.164237010E0,1.112372017E1,5.804939747E0,4.250359535E-2,1.254736157E1
9.172293514E0,1.443707752E1,1.514965534E0,1.823296547E0,1.463040458E1
9.180319500E0,1.805441284E1,-3.089104652E0,2.839813471E0,1.853561251E1
9.188345486E0,2.194529343E1,-1.086236763E1,4.129034996E0,2.483215384E1
9.196401990E0,2.642272568E1,-2.224451447E1,7.088759899E0,3.525945792E1
9.204427976E0,2.740479851E1,-3.284939575E1,1.022032928E1,4.398364370E1
9.212453963E0,2.456530762E1,-3.760842514E1,1.274337196E1,4.669305632E1
9.220510465E0,2.015927505E1,-3.782160187E1,1.514193344E1,4.545490168E1
9.228536451E0,1.578623581E1,-3.616593933E1,1.769777679E1,4.324802553E1
9.236562438E0,1.052576923E1,-3.319863510E1,1.894558907E1,3.964689818E1
9.244618941E0,4.649612427E0,-2.795661163E1,1.551630878E1,3.231016664E1
9.252644928E0,2.385983467E-1,-2.153609467E1,1.088662338E1,2.413252725E1
9.260670914E0,-2.260933638E0,-1.658080864E1,6.391875744E0,1.791343383E1
9.268696900E0,-4.525621414E0,-1.179055405E1,4.856235504E0,1.353075893E1
9.276753404E0,-7.666337490E0,-7.826227188E0,-1.279990673E0,1.103000175E1
9.284779390E0,-1.221353531E1,-4.945602417E0,-1.155750942E1,1.752727737E1
9.292805376E0,-1.759928703E1,-2.292057037E0,-1.569661999E1,2.369329670E1
9.300861879E0,-1.649230003E1,-9.111390114E-1,-1.294679832E1,2.098679874E1
9.308887865E0,-1.514998817E1,7.486019135E-1,-9.714400291E0,1.801255450E1
9.316913852E0,-1.380139160E1,2.193360329E0,-6.582563400E0,1.544730982E1
9.324970355E0,-1.246188164E1,3.539755344E0,-3.897869587E0,1.352855311E1
9.332996341E0,-1.176627445E1,4.732303143E0,-1.342172146E0,1.275309114E1
9.341052845E0,-1.201424980E1,6.497214794E0,1.317418933E0,1.372193831E1
9.349078831E0,-1.297666264E1,8.549045563E0,2.811308384E0,1.579187791E1
9.357104817E0,-1.475409222E1,1.051328754E1,2.598544121E0,1.830204589E1
9.365130804E0,-1.565729904E1,1.286800003E1,1.028520107E0,2.029271524E1
9.373187307E0,-1.384560108E1,1.421371937E1,-1.769435406E0,1.992138020E1
9.381213294E0,-1.061647224E1,1.486939430E1,-5.560039043E0,1.909770677E1
9.389239280E0,-8.209670067E0,1.527126503E1,-7.710348129E0,1.897523877E1
9.397295782E0,-5.837397575E0,1.571972847E1,-1.042025280E1,1.974251104E1
9.405321769E0,-3.642979145E0,1.556357956E1,-1.157507610E1,1.973521453E1
9.413378272E0,-1.602328300E0,1.232594776E1,-9.281948090E0,1.551293024E1
9.421404259E0,5.103421211E-2,8.193887711E0,-9.645465851E0,1.265612151E1
9.429430245E0,1.783846140E0,6.300226212E0,-7.326043606E0,9.825775912E0
9.437486749E0,3.716089964E0,5.136607170E0,-4.519534111E0,7.785900489E0
9.445512735E0,2.008213043E0,5.733631134E0,-1.120385885E0,6.177597441E0
9.453569237E0,-2.163243771E0,6.827988625E0,1.605925560E0,7.340303071E0
9.461595224E0,-3.706166744E0,6.453205109E0,2.213678360E-1,7.445034038E0
9.469651727E0,-4.193566799E0,5.447748184E0,-5.238520503E-1,6.894808463E0
9.477677714E0,-4.770223618E0,2.961651325E0,-6.190297604E-1,5.648859157E0
9.485703700E0,-5.778297424E0,-2.242542267E0,4.673153162E-1,6.215794442E0
9.493760203E0,-6.558684349E0,-7.878989220E0,2.577930689E0,1.057073972E1
9.501786190E0,-6.886585236E0,-1.446200943E1,9.249497652E-1,1.604463477E1
9.509812176E0,-8.341464996E0,-1.750285149E1,1.574276447E0,1.945271690E1
9.517868679E0,-1.254978466E1,-1.817646790E1,-1.538189292E0,2.214152448E1
9.525894666E0,-1.384657478E1,-1.681938934E1,-1.982205987E0,2.187575443E1
9.533951169E0,-1.171812630E1,-1.711807060E1,1.270898581E0,2.078359950E1
9.541977155E0,-9.863491058E0,-1.893600464E1,3.503679991E0,2.163646230E1
9.550033658E0,-8.599816322E0,-1.990386581E1,5.347912788E0,2.233205961E1
9.558059645E0,-6.073094845E0,-1.850016785E1,5.981727600E0,2.036957919E1
9.566085631E0,-2.959731340E0,-1.607464981E1,5.774840355E0,1.733502689E1
9.574142135E0,-3.427014351E-1,-1.420147800E1,5.838209152E0,1.535851907E1
9.582168121E0,2.033749819E0,-1.290231323E1,5.969629288E0,1.436113850E1
9.590224624E0,4.679726601E0,-1.234490490E1,6.264195442E0,1.461289371E1
9.598250610E0,7.048985481E0,-1.225853920E1,6.576447487E0,1.559518006E1
9.606276596E0,1.002347946E1,-1.233727837E1,6.180850983E0,1.705524837E1
9.614333100E0,1.216765881E1,-1.245527840E1,6.505887985E0,1.858796544E1
9.622359086E0,1.471913815E1,-1.248121452E1,5.752686501E0,2.013770458E1
9.630415590E0,1.773973656E1,-1.259324265E1,4.546670437E0,2.222521598E1
9.638441576E0,1.973480797E1,-1.222475338E1,4.029955387E0,2.356157425E1
9.646498079E0,2.147502708E1,-1.119311142E1,2.685167789E0,2.436539878E1
9.654524065E0,2.200281906E1,-9.626780510E0,7.466073036E-1,2.402824114E1
9.662580568E0,3.437851334E1,4.464912415E-2,-4.613114166E1,5.753230748E1
9.670606555E0,2.887314796E1,-1.221013069E0,-2.886054993E1,4.084214598E1
9.678632541E0,1.918021774E1,-1.753021240E0,-4.316666126E0,1.973796957E1
9.686689045E0,1.474795532E1,1.403215885E0,3.915361404E0,1.532322603E1
9.694715031E0,1.185145378E1,4.606184959E0,3.742877007E0,1.325454733E1
9.702771534E0,9.666367531E0,8.382922173E0,4.065443516E0,1.342534455E1
9.710797520E0,1.231527805E1,1.547379875E1,7.969354391E-1,1.979241338E1
9.718823506E0,1.230286217E1,1.974656677E1,2.738387346E0,2.342618369E1
9.726880010E0,1.347560120E1,2.036684799E1,1.932942033E0,2.449768539E1
9.734905996E0,1.652438545E1,2.139952278E1,-3.536089420E0,2.726717474E1
9.742931982E0,2.095093536E1,2.348600006E1,-1.368075562E1,3.431758974E1
9.750988486E0,2.131415176E1,2.373132515E1,-1.491055012E1,3.521069956E1
9.759014472E0,2.005575943E1,2.189176941E1,-9.008657455E0,3.102642363E1
9.767040458E0,1.790390205E1,2.001958084E1,-4.397122383E0,2.721521654E1
9.775066444E0,1.673708725E1,1.827793694E1,-2.744361877E0,2.493480680E1
9.783122948E0,1.417744827E1,1.612256813E1,-2.267020702E0,2.158880788E1
9.791148934E0,1.251364708E1,1.405988693E1,-1.399581432E0,1.887407248E1
9.799205437E0,1.073141766E1,1.222064114E1,-3.285830021E-1,1.626700223E1
9.807231423E0,9.585947037E0,9.877332687E0,1.013193130E-1,1.376453222E1
9.815257410E0,1.085334206E1,6.740226269E0,5.430567265E-1,1.278751714E1
9.823313913E0,1.501999950E1,1.962522507E0,2.203910351E0,1.530715847E1
9.831339899E0,1.918434334E1,-3.763413429E0,3.661512136E0,1.988992160E1
9.839365886E0,2.453451920E1,-1.003020000E1,4.133411884E0,2.682596947E1
9.847422389E0,2.855714035E1,-2.004683685E1,7.241269112E0,3.563456063E1
9.855448376E0,2.925794601E1,-3.271660995E1,8.512278557E0,4.470864411E1
9.863504878E0,2.770904541E1,-3.718099976E1,1.030038261E1,4.750069286E1
9.871530864E0,2.315695000E1,-3.798388672E1,1.327639008E1,4.642502038E1
9.879556851E0,1.786520004E1,-3.693281555E1,1.612297058E1,4.408115717E1
9.887582837E0,1.322414207E1,-3.532981110E1,1.845373344E1,4.199540170E1
9.895639341E0,7.243742943E0,-3.217987442E1,1.800150490E1,3.757752398E1
9.903665327E0,1.406390667E0,-2.669340515E1,1.353013706E1,2.995964656E1
9.911721831E0,-2.598884821E0,-2.096316147E1,9.790424347E0,2.328219813E1
9.919747817E0,-5.161355495E0,-1.555266857E1,6.806120396E0,1.774396701E1
9.927773803E0,-7.386226654E0,-1.135215855E1,4.131519318E0,1.415970691E1
9.935830306E0,-9.709575653E0,-8.275399208E0,-6.884311438E-1,1.277622905E1
9.943856293E0,-1.304830074E1,-5.377281189E0,-7.904914856E0,1.617593843E1
9.951882279E0,-1.690858078E1,-2.925999165E0,-1.349177074E1,2.182863837E1
9.959938782E0,-1.713818550E1,-1.098813534E0,-1.004426956E1,1.989502813E1
9.967964768E0,-1.622384071E1,7.450261116E-1,-7.380396843E0,1.783923566E1
9.976021272E0,-1.528244972E1,2.516934872E0,-4.918552876E0,1.625055055E1
9.984047258E0,-1.491359329E1,3.904246807E0,-2.764841795E0,1.566214411E1
9.992073244E0,-1.522365570E1,5.322438240E0,-1.496034741E0,1.619648609E1
1.000012975E1,-1.697574234E1,7.389572144E0,-5.671037436E-1,1.852304541E1
1.000815573E1,-1.855160522E1,8.739599228E0,1.900506020E-2,2.050714540E1
1.001621224E1,-1.833857918E1,1.016269875E1,-2.009207010E-1,2.096721968E1
1.002423822E1,-1.693448257E1,1.178588104E1,-2.443067789E0,2.077624298E1
1.003226421E1,-1.452657509E1,1.325022221E1,-5.422062874E0,2.039579707E1
1.004032071E1,-1.193912888E1,1.484227180E1,-8.821733475E0,2.099187491E1
1.004834670E1,-9.433429718E0,1.602164459E1,-1.082334137E1,2.151342395E1
1.005640320E1,-5.747231007E0,1.627736473E1,-1.144340801E1,2.071074247E1
1.006442919E1,-3.286251783E0,1.437731075E1,-8.733059883E0,1.713980310E1
1.007245518E1,-3.765461445E-1,1.096314716E1,-8.094547272E0,1.363283090E1
1.008051168E1,2.727805376E0,7.877245426E0,-6.787613869E0,1.075005208E1
1.008853766E1,3.106962204E0,6.938751221E0,-1.692514777E0,7.788715485E0
1.009656365E1,6.865694523E-1,7.484429836E0,1.280439615E0,7.624145408E0
1.010462015E1,-1.807672739E0,8.039938927E0,1.307362199E0,8.343709882E0
1.011264614E1,-2.678361177E0,7.869068146E0,4.785662293E-1,8.326156239E0
1.012067213E1,-3.348078251E0,7.309959412E0,2.081506252E-1,8.042913729E0
1.012872863E1,-3.649291754E0,6.360404015E0,1.199725866E-1,7.333925481E0
1.013675462E1,-4.479371071E0,3.907470703E0,-4.878466129E-1,5.964150133E0
1.014478060E1,-5.073780060E0,-1.033022881E0,-1.066532612E0,5.286574711E0
1.015283711E1,-5.427508831E0,-6.928202629E0,2.269687414E0,9.088967199E0
1.016086309E1,-4.821752071E0,-1.369563389E1,1.191241980E0,1.456841577E1
1.016891960E1,-7.664370537E0,-1.776866913E1,2.651304960E0,1.953196345E1
1.017694558E1,-1.253607464E1,-2.059382248E1,-8.503553867E-1,2.412429887E1
1.018497157E1,-1.432148457E1,-2.081365967E1,-1.998618841E0,2.534379266E1
1.019302807E1,-1.079104900E1,-2.096995163E1,9.077725410E-1,2.360105211E1
1.020105406E1,-7.382115364E0,-2.186290741E1,3.905927420E0,2.340381628E1
1.020908004E1,-4.275035858E0,-2.162883759E1,4.787984848E0,2.256119114E1
1.021710603E1,-1.962473869E0,-1.951212311E1,5.142961979E0,2.027373448E1
1.022516253E1,3.387610912E-1,-1.697908401E1,5.377017975E0,1.781337630E1
1.023318852E1,2.201424122E0,-1.478007984E1,5.361824512E0,1.587596266E1
1.024121451E1,3.801852226E0,-1.275622654E1,5.350129128E0,1.434570589E1
1.024927101E1,5.741340637E0,-1.135414982E1,5.636458874E0,1.391579603E1
1.025729700E1,7.431919575E0,-1.074221897E1,6.121957779E0,1.442591640E1
1.026535350E1,9.546623230E0,-1.036118221E1,7.168302536E0,1.580748788E1
1.027337949E1,1.168160343E1,-1.005400944E1,6.036540985E0,1.655242555E1
1.028140547E1,1.462122536E1,-9.833919525E0,5.471461296E0,1.845055806E1
1.028946198E1,1.745486450E1,-9.850902557E0,5.122231483E0,2.068694833E1
1.029748796E1,1.896039009E1,-9.566160202E0,4.094216824E0,2.162800094E1
1.030554446E1,2.015832901E1,-7.915704727E0,2.813955784E0,2.183884056E1
1.031357045E1,2.065221786E1,-5.713603973E0,1.665853024E0,2.149266013E1
1.032159644E1,2.473605156E1,-2.343254089E0,-1.948882103E1,3.157811317E1
1.032965294E1,3.328522491E1,3.291802406E0,-3.082228661E1,4.548357409E1
1.033767893E1,2.324331474E1,1.850016594E0,-1.163719368E1,2.605951877E1
1.034573543E1,1.668540001E1,1.932729721E0,-5.350186825E-1,1.680548311E1
1.035376142E1,1.465876579E1,4.078798771E0,2.765381336E0,1.546490698E1
1.036178740E1,1.258267021E1,6.563396931E0,2.705528498E0,1.444720227E1
1.036984391E1,1.175539017E1,9.872391701E0,5.068688393E-1,1.535936951E1
1.037786989E1,1.537971210E1,1.545082664E1,-4.255956650E0,2.221208580E1
1.038589588E1,1.534767056E1,1.936421967E1,-3.377176285E0,2.493851067E1
1.039395238E1,1.608867264E1,2.102612305E1,-3.490098953E0,2.670438219E1
1.040197837E1,1.783226013E1,2.205518341E1,-6.729208946E0,2.914966329E1
1.041000435E1,1.935648155E1,2.193373489E1,-1.078358841E1,3.117768246E1
1.041806086E1,1.930953407E1,2.138932419E1,-1.084862423E1,3.079048462E1
1.042608684E1,1.791773033E1,1.997330666E1,-6.863960743E0,2.769642569E1
1.043414335E1,1.653835297E1,1.767198181E1,-4.198685169E0,2.456511789E1
1.044216933E1,1.465703106E1,1.617275810E1,-3.305177927E0,2.207511869E1
1.045022584E1,1.313393116E1,1.441926670E1,-1.785111189E0,1.958576069E1
1.045825182E1,1.158073902E1,1.277340889E1,-1.088375092E0,1.727593851E1
1.046630833E1,9.808634758E0,1.083345509E1,-6.144037247E-1,1.462704881E1
1.047433431E1,9.180582047E0,8.646634102E0,-3.601882458E-1,1.261654087E1
1.048236030E1,1.071763802E1,5.285610199E0,2.417616844E-1,1.195256828E1
1.049041680E1,1.501539040E1,4.782686234E-1,2.410157204E0,1.521510918E1
1.049844279E1,2.066618729E1,-5.226809502E0,3.934142590E0,2.167690735E1
1.050646878E1,2.699706841E1,-1.355170345E1,6.144449234E0,3.082603811E1
1.051452528E1,3.123729706E1,-2.616093826E1,9.710918427E0,4.188633852E1
1.052255126E1,3.307885742E1,-3.709807205E1,1.169218826E1,5.106060149E1
1.053060777E1,2.888907242E1,-3.933623123E1,1.506299019E1,5.107652363E1
1.053863375E1,2.255081367E1,-3.850458527E1,1.838879776E1,4.826272026E1
1.054665974E1,1.756493378E1,-3.633845139E1,2.115629387E1,4.556971273E1
1.055471624E1,1.109152126E1,-3.363330841E1,2.123959541E1,4.129578298E1
1.056274223E1,4.896465778E0,-2.883930206E1,1.608964157E1,3.338498594E1
1.057076822E1,2.746715546E-1,-2.277083969E1,1.095740318E1,2.527155059E1
1.057882472E1,-2.954795837E0,-1.727238464E1,7.530333519E0,1.907280820E1
1.058685071E1,-5.404643536E0,-1.399579144E1,4.995302677E0,1.581282386E1
1.059490721E1,-7.703345776E0,-1.007712173E1,3.189861774E0,1.307918716E1
1.060293320E1,-1.033602715E1,-7.617359161E0,-1.198287964E0,1.289548416E1
1.061098970E1,-1.454858780E1,-5.551169872E0,-8.519343376E0,1.774981987E1
1.061901568E1,-1.877625084E1,-3.766802311E0,-1.336307240E1,2.335183288E1
1.062704167E1,-1.890656471E1,-2.580324173E0,-1.098634243E1,2.201853724E1
1.063509818E1,-1.780825043E1,-3.416213989E-1,-8.804227829E0,1.986869186E1
1.064312416E1,-1.774827957E1,1.766712666E0,-6.962817192E0,1.914689334E1
1.065115015E1,-1.885728264E1,3.885218382E0,-5.790236473E0,2.010519507E1
1.065920665E1,-2.004933739E1,6.454193115E0,-3.450949669E0,2.134342035E1
1.066723264E1,-2.102284622E1,8.195230484E0,-2.084369421E0,2.265979836E1
1.067525862E1,-2.018012047E1,9.241155624E0,-6.967453957E-1,2.220634309E1
1.068331513E1,-1.758908653E1,1.053760719E1,-1.169234276E0,2.053738638E1
1.069134111E1,-1.431847954E1,1.201752090E1,-3.831046581E0,1.908183909E1
1.069936710E1,-1.123960209E1,1.304007626E1,-6.054254532E0,1.824900660E1
1.070742360E1,-9.113405228E0,1.384894180E1,-7.455181122E0,1.817765302E1
1.071544959E1,-7.172601223E0,1.512438869E1,-9.304598808E0,1.915121147E1
1.072347558E1,-4.810081005E0,1.644858742E1,-1.201294422E1,2.092853880E1
1.073153208E1,-2.252777576E0,1.374737358E1,-9.752115250E0,1.700497101E1
1.073955806E1,4.474143982E-1,9.529526711E0,-9.390824318E0,1.338654699E1
1.074761457E1,2.233075619E0,7.581469536E0,-6.114026546E0,9.992328440E0
1.075564055E1,2.243643284E0,7.473865032E0,-1.693382740E0,7.984994603E0
1.076366654E1,-1.217416286E0,8.612036705E0,1.301345587E0,8.794474342E0
1.077172304E1,-3.420787811E0,8.902202606E0,1.073122621E0,9.597009568E0
1.077974903E1,-3.845935345E0,8.661252022E0,3.434218168E-1,9.482955436E0
1.078777502E1,-3.757077217E0,8.225835800E0,-2.307159901E-1,9.046172323E0
1.079583152E1,-3.708764791E0,6.298672199E0,-7.226321101E-1,7.345093935E0
1.080385751E1,-3.893023968E0,4.550462723E0,-1.331779361E0,6.134817265E0
1.081191401E1,-4.498603344E0,4.789695740E-1,-1.871368527E0,4.895800656E0
1.081994000E1,-6.274162769E0,-7.571435928E0,2.095627069E0,1.005402473E1
1.082796598E1,-5.975612640E0,-1.468959999E1,3.965027332E-1,1.586346459E1
1.083599197E1,-8.030682564E0,-2.143063354E1,2.549428225E0,2.302745103E1
1.084404847E1,-8.842788696E0,-2.308920860E1,3.484118938E0,2.496889166E1
1.085207446E1,-1.072090912E1,-2.418880081E1,3.794314146E0,2.672887571E1
1.086010044E1,-1.063068676E1,-2.510822296E1,3.665305614E0,2.751124909E1
1.086815695E1,-9.263751984E0,-2.640037537E1,4.477426529E0,2.833450668E1
1.087618293E1,-7.789875031E0,-2.398780441E1,5.341684341E0,2.578042872E1
1.088420892E1,-4.863711357E0,-2.002353096E1,4.991174221E0,2.120163438E1
1.089226542E1,-2.592338800E0,-1.692006683E1,5.109526634E0,1.786382223E1
1.090029141E1,-4.211562276E-1,-1.439878750E1,5.742919445E0,1.550753294E1
1.090831740E1,1.668094873E0,-1.268795300E1,5.621373653E0,1.397735789E1
1.091637390E1,3.763608456E0,-1.125249386E1,5.690489769E0,1.315921884E1
1.092439988E1,6.310805321E0,-1.037921143E1,5.638876915E0,1.339220768E1
1.093245639E1,8.569098473E0,-9.617648125E0,5.686828613E0,1.408078917E1
1.094048237E1,1.103660297E1,-8.939622879E0,4.839689255E0,1.500486769E1
1.094853888E1,1.351585293E1,-8.604310036E0,4.040750504E0,1.652392496E1
1.095656486E1,1.576432991E1,-8.732427597E0,2.880606174E0,1.825013099E1
1.096459085E1,1.840700531E1,-8.527371407E0,2.253573418E0,2.041108769E1
1.097264735E1,1.992094803E1,-8.588204384E0,7.835421562E-1,2.170749555E1
1.098067334E1,2.186831284E1,-6.907086372E0,-4.241887093E0,2.332219017E1
1.098872984E1,3.478623199E1,2.014295578E0,-3.858794403E1,5.199200657E1
1.099675583E1,2.735406494E1,3.648152351E-1,-2.163293076E1,3.487637670E1
1.100478182E1,1.715061760E1,-8.947410583E-1,-2.869269133E0,1.741197723E1
1.101283832E1,1.440977669E1,1.788115978E0,3.390506983E0,1.491088732E1
1.102086431E1,1.269507408E1,4.355566502E0,3.751656532E0,1.393595322E1
1.102892081E1,1.181415367E1,7.173805714E0,4.298365116E0,1.447458663E1
1.103694679E1,1.140795517E1,1.001980019E1,4.856182098E0,1.594115245E1
1.104497278E1,1.658282471E1,1.681476021E1,3.004849911E0,2.380662427E1
1.105302928E1,1.897019577E1,2.196009827E1,3.163160324E0,2.919109156E1
1.106105527E1,2.035740852E1,2.361011124E1,1.826112390E0,3.122813028E1
1.106911177E1,2.158983994E1,2.401275826E1,-6.367743492E0,3.291324816E1
1.107713776E1,2.251428986E1,2.494096756E1,-1.263939285E1,3.589845905E1
1.108516375E1,2.020527458E1,2.405042267E1,-1.202182293E1,3.363331946E1
1.109322025E1,1.766956711E1,2.183302689E1,-7.808481216E0,2.915247920E1
1.110124624E1,1.420960236E1,1.906243515E1,-5.438150883E0,2.438980767E1
1.110930274E1,1.440929890E1,1.572681618E1,-3.277499199E0,2.158014464E1
1.111732873E1,1.271456528E1,1.270851517E1,-1.438851595E0,1.803432344E1
1.112535471E1,1.206857300E1,9.638343811E0,9.441413879E-1,1.547383367E1
1.113341122E1,1.276092052E1,6.113254547E0,2.197057724E0,1.431921913E1
1.114146772E1,1.560710812E1,5.248041153E-1,2.890453339E0,1.588118269E1
1.114949371E1,1.847467613E1,-3.913742065E0,3.568786383E0,1.921893003E1
1.115755021E1,2.123480797E1,-8.594036102E0,2.951119661E0,2.309726463E1
1.116557619E1,2.261179733E1,-1.834058571E1,-3.606085777E-1,2.911701395E1
1.117363270E1,2.351799583E1,-2.742978668E1,2.107217789E0,3.619295086E1
1.118165868E1,2.777615166E1,-3.500816727E1,8.003059387E0,4.539972837E1
1.118968467E1,2.310559082E1,-3.815258789E1,9.013637543E0,4.550531784E1
1.119774117E1,1.880831909E1,-3.825476456E1,1.260129929E1,4.445191359E1
1.120576716E1,1.582999420E1,-3.792011261E1,1.672933578E1,4.436659027E1
1.121382366E1,1.205418301E1,-3.680800247E1,2.140544128E1,4.425296928E1
1.122184965E1,6.368520737E0,-3.229565048E1,1.960034180E1,3.831110146E1
1.122990615E1,7.745747566E-1,-2.489051819E1,1.369697571E1,2.842085511E1
1.123793214E1,-2.940487623E0,-1.813545227E1,8.788272858E0,2.036602161E1
1.124595813E1,-4.902597904E0,-1.241563797E1,6.033517838E0,1.464878391E1
1.125401463E1,-7.079133034E0,-8.801126480E0,2.757324219E0,1.162655532E1
1.126204062E1,-9.212529182E0,-5.879719734E0,-3.181410789E0,1.138258199E1
1.127006660E1,-1.251254368E1,-2.373149872E0,-9.265433311E0,1.574940774E1
1.127812310E1,-1.584570694E1,-4.141960144E-1,-1.176940155E1,1.974276575E1
1.128614909E1,-1.497462463E1,1.113405704E0,-8.833337784E0,1.742144976E1
1.129420559E1,-1.481706333E1,2.659648418E0,-6.653180122E0,1.645855101E1
1.130223158E1,-1.553886127E1,4.422650337E0,-5.139237404E0,1.695369596E1
1.131025757E1,-1.687220383E1,5.891350746E0,-4.483645916E0,1.842504698E1
1.131831407E1,-1.849796295E1,8.052522659E0,-2.697688341E0,2.035424469E1
1.132634006E1,-1.916147041E1,9.584089279E0,-1.159641266E0,2.145603606E1
1.133439656E1,-1.900206947E1,1.100880146E1,1.270442486E0,2.199741753E1
1.134242255E1,-1.632245255E1,1.230643845E1,1.742902398E0,2.051605696E1
1.135047905E1,-1.317601490E1,1.349525070E1,-9.428852201E-1,1.888433723E1
1.135850504E1,-1.011599159E1,1.467151451E1,-4.294437885E0,1.833108891E1
1.136653102E1,-8.222761154E0,1.590870476E1,-6.755559444E0,1.913996529E1
1.137458752E1,-6.831371307E0,1.705334282E1,-8.521351814E0,2.025086596E1
1.138261351E1,-4.647245407E0,1.738422394E1,-8.569160461E0,1.993084652E1
1.139067001E1,-2.896616459E0,1.428226089E1,-4.397244930E0,1.522199482E1
1.139869600E1,-1.907884717E0,1.096017456E1,-1.694612026E0,1.125331775E1
1.140675250E1,-1.340719461E0,9.283474922E0,-1.147771835E0,9.449752139E0
1.141477849E1,-9.803364277E-1,8.074128151E0,-2.990402460E0,8.665743579E0
1.142283499E1,-1.122712135E0,7.383570194E0,-5.808525562E0,9.461319177E0
1.143086098E1,-3.003777027E0,5.577360153E0,-9.058091164E0,1.105344463E1
1.143891748E1,-8.140806198E0,2.152816296E0,-1.430976582E1,1.660351593E1
1.144694347E1,-6.036856651E0,2.742936134E0,-4.805657387E0,8.189119598E0
1.145499997E1,-5.284456253E0,2.468574047E0,-6.628109813E-1,5.870149411E0
1.146302596E1,-6.088870525E0,-3.884220123E-2,-2.642814636E0,6.637794980E0
1.147108246E1,-8.615036964E0,-4.265869141E0,2.384669781E0,9.904703498E0
1.147910845E1,-8.641246796E0,-1.120088005E1,1.082580209E0,1.418812320E1
1.148713444E1,-9.136222839E0,-1.747679710E1,2.131248236E0,1.983560495E1
1.149519094E1,-9.865102768E0,-1.913009262E1,2.701903343E0,2.169287851E1
1.150321693E1,-1.177575493E1,-1.975625992E1,3.431214809E0,2.325406298E1
1.151124291E1,-1.288809681E1,-2.221074677E1,3.292787790E0,2.588943342E1
1.151929941E1,-1.084459686E1,-2.343132019E1,3.791851282E0,2.609617181E1
1.152732540E1,-8.719671249E0,-2.220489502E1,4.747415543E0,2.432340404E1
1.153535139E1,-6.646361351E0,-2.006578064E1,5.267160416E0,2.178422940E1
1.154340789E1,-4.773828506E0,-1.812326241E1,5.928548813E0,1.965679958E1
1.155143388E1,-2.437027931E0,-1.703413963E1,6.725448608E0,1.847519086E1
1.155945986E1,6.617658138E-1,-1.594086075E1,7.617721558E0,1.767989415E1
1.156751637E1,3.658535957E0,-1.453494930E1,7.841534615E0,1.691565256E1
1.157554235E1,6.451515198E0,-1.361785126E1,7.892640114E0,1.701063459E1
1.158356834E1,9.075759888E0,-1.230775547E1,7.939310074E0,1.723029038E1
1.159162484E1,1.085891819E1,-1.163768578E1,7.773233414E0,1.771369505E1
1.159965083E1,1.366461563E1,-1.069903564E1,7.238265991E0,1.880381819E1
1.160767681E1,1.659145355E1,-1.098905849E1,4.942106247E0,2.050512501E1
1.161573332E1,1.903437042E1,-1.064893723E1,3.545623302E0,2.209702618E1
1.162375930E1,2.076137733E1,-9.363757133E0,1.967558622E0,2.286014049E1
1.163178529E1,2.211298561E1,-7.554087639E0,5.559206009E-1,2.337428973E1
1.163984179E1,2.353929138E1,-6.705513000E0,-2.194391727E0,2.457391907E1
1.164786778E1,3.985976028E1,3.623282909E0,-4.218413162E1,5.815006130E1
1.165589377E1,2.925447083E1,2.606119156E0,-2.727120781E1,4.007910548E1
1.166391975E1,1.735337830E1,-1.212434769E-1,-2.020417452E0,1.747101957E1
1.167197626E1,1.495652008E1,2.908875942E0,5.188468933E0,1.609593930E1
1.168000224E1,1.291307735E1,6.789359570E0,4.331811905E0,1.521865843E1
1.168802823E1,1.490156555E1,1.427636814E1,9.259322882E-1,2.065741256E1
1.169608473E1,1.391236496E1,1.775664902E1,4.060224533E0,2.292025101E1
1.170411072E1,1.668792534E1,1.916376877E1,4.210523129E0,2.575782193E1
1.171213670E1,2.261138344E1,2.111823273E1,-6.615215540E-1,3.094659958E1
1.172019321E1,2.859157562E1,2.487578773E1,-1.219370079E1,3.981167355E1
1.172821919E1,2.789117432E1,2.570528030E1,-1.364635086E1,4.031007234E1
1.173627570E1,2.393636513E1,2.415154839E1,-9.170450211E0,3.521851817E1
1.174430168E1,2.114885902E1,2.253766060E1,-5.371625900E0,3.136996570E1
1.175232767E1,1.691660309E1,2.029073143E1,-3.677519560E0,2.667225885E1
1.176038417E1,1.544496632E1,1.797693634E1,-2.961425304E0,2.388487523E1
1.176841016E1,1.241335583E1,1.520729542E1,-1.263970256E0,1.967106651E1
1.177643615E1,1.060656738E1,1.261994171E1,-8.386211395E-1,1.650652858E1
1.178449265E1,9.838721275E0,1.003361702E1,8.098888397E-1,1.407585972E1
1.179251864E1,1.091169071E1,6.795231342E0,8.350117207E-1,1.288166945E1
1.180054462E1,1.520762348E1,1.519631386E0,2.193443537E0,1.543995745E1
1.180860113E1,2.100171089E1,-4.410982132E0,4.719428062E0,2.197274732E1
1.181662711E1,2.550954437E1,-1.200658035E1,5.546438694E0,2.873426192E1
1.182468362E1,2.850663567E1,-2.059479713E1,5.632167816E0,3.561594110E1
1.183270960E1,3.095108795E1,-3.178907776E1,6.711085320E0,4.487264174E1
1.184076610E1,3.197363281E1,-3.954233932E1,9.581443787E0,5.174663138E1
1.184879209E1,2.710210037E1,-4.117685699E1,1.198129654E1,5.073074870E1
1.185681808E1,2.095474052E1,-4.027538300E1,1.619976997E1,4.820415099E1
1.186487458E1,1.691014290E1,-3.873689270E1,2.142781258E1,4.738829962E1
1.187290057E1,9.810381889E0,-3.495904160E1,2.211712074E1,4.251523506E1
1.188095707E1,2.955548286E0,-2.804376411E1,1.623093987E1,3.253661599E1
1.188898306E1,-1.845640421E0,-2.307590485E1,1.127033615E1,2.574731539E1
1.189703956E1,-4.644939899E0,-1.678793335E1,7.590141773E0,1.900053749E1
1.190506555E1,-7.140180588E0,-1.243720245E1,3.839476585E0,1.484613634E1
1.191312205E1,-9.660533905E0,-9.789928436E0,-1.447778940E-1,1.375462012E1
1.192114804E1,-1.349962139E1,-7.572104454E0,-8.165024757E0,1.749983351E1
1.192917402E1,-1.801399231E1,-5.653295040E0,-1.268297482E1,2.274470299E1
1.193723053E1,-1.741948700E1,-4.271420479E0,-9.420686722E0,2.025914358E1
1.194525651E1,-1.620300674E1,-2.866662502E0,-6.836422443E0,1.781830108E1
1.195331301E1,-1.642808914E1,-6.522946358E-1,-3.964932442E0,1.691237093E1
1.196133900E1,-1.692485046E1,9.672226906E-1,-1.956539750E0,1.706499724E1
1.196936499E1,-1.917222786E1,3.367369652E0,-8.522868156E-3,1.946570246E1
1.197742149E1,-2.127726173E1,5.745045662E0,1.595680952E0,2.209691413E1
1.198544748E1,-2.183940887E1,7.232259274E0,2.409093380E0,2.313156037E1
1.199350398E1,-1.951601028E1,8.563756943E0,1.698102832E0,2.137980691E1
1.200152997E1,-1.614246750E1,1.059976196E1,8.914780617E-2,1.931171038E1
1.200955595E1,-1.301945782E1,1.245940495E1,-3.408326149E0,1.834011288E1
1.201761246E1,-1.050865555E1,1.430344772E1,-7.453119755E0,1.925018058E1
1.202563844E1,-8.413056374E0,1.596476936E1,-1.060642624E1,2.093202465E1
1.203369494E1,-6.434711456E0,1.756996155E1,-1.233339977E1,2.241030589E1
1.204172093E1,-3.733935595E0,1.779702759E1,-1.269920063E1,2.217985939E1
1.204977744E1,-2.569896221E0,1.405202866E1,-8.361240387E0,1.655216653E1
1.205780342E1,-5.054502487E-1,1.056800652E1,-7.039796352E0,1.270814598E1
1.206582941E1,1.107399702E0,8.670004845E0,-3.881657362E0,9.563607164E0
1.207388591E1,8.341193199E-1,8.460000038E0,-2.521090269E0,8.866975348E0
1.208191190E1,-1.858253002E0,8.775915146E0,-5.184043050E-1,8.985462364E0
1.208996840E1,-4.063861370E0,8.494593620E0,2.624059021E-1,9.420294415E0
1.209799439E1,-4.749880314E0,7.317547321E0,-1.949410915E0,8.939131094E0
1.210605089E1,-5.770630836E0,4.627955437E0,-1.280001926E1,1.478372906E1
1.211410739E1,-5.891109467E0,3.571428776E0,1.657551050E0,7.085742709E0
1.212213338E1,-6.003173828E0,-6.158008575E-1,-4.657975197E0,7.623256498E0
1.213015937E1,-8.439304352E0,-4.764515877E0,-2.838151455E0,1.009839458E1
1.213821587E1,-9.803618431E0,-1.030592251E1,-3.168085814E-1,1.422755568E1
1.214624186E1,-9.517400742E0,-1.611478806E1,1.056486487E0,1.874522538E1
1.215429836E1,-1.052303314E1,-1.951340103E1,1.148507357E0,2.219968728E1
1.216232435E1,-1.217462921E1,-2.257185555E1,3.302156448E0,2.585758102E1
1.217035033E1,-1.151101685E1,-2.445984840E1,4.388009071E0,2.738690045E1
1.217840684E1,-9.061120033E0,-2.511070251E1,4.941562653E0,2.714903900E1
1.218643282E1,-6.406914711E0,-2.426250076E1,5.830471992E0,2.576260668E1
1.219448932E1,-4.456970215E0,-2.215109825E1,6.552320480E0,2.352591424E1
1.220251531E1,-2.167666912E0,-1.949332809E1,6.911098003E0,2.079547777E1
1.221057181E1,-8.110165596E-2,-1.709137917E1,7.172525883E0,1.853555898E1
1.221859780E1,2.137507915E0,-1.471239281E1,7.503416538E0,1.665306884E1
1.222665430E1,4.505375862E0,-1.299204063E1,7.527760029E0,1.567669297E1
1.223468029E1,6.827523232E0,-1.189742184E1,7.192843437E0,1.548872869E1
1.224273679E1,8.622647285E0,-1.071863937E1,6.316472054E0,1.513727503E1
1.225076278E1,9.974349976E0,-9.487235069E0,6.758382320E0,1.533528670E1
1.225888032E1,1.289870358E1,-1.000367928E1,5.782687187E0,1.731732150E1
1.226690630E1,1.623605537E1,-9.818615913E0,4.452501297E0,1.948947101E1
1.227496281E1,1.964919090E1,-9.122415543E0,3.130648851E0,2.188858448E1
1.228298879E1,2.164069939E1,-8.594182014E0,2.357077360E0,2.340375286E1
1.229104530E1,2.300279617E1,-7.918216705E0,1.260145664E0,2.436010580E1
1.229907128E1,2.992633629E1,-5.448968887E0,-2.291680145E1,3.808486122E1
1.230709727E1,4.175890732E1,4.949503899E0,-2.888686180E1,5.101720018E1
1.231515377E1,2.214622116E1,1.678204060E0,-7.786080360E0,2.353496395E1
1.232317976E1,1.597817898E1,2.634522915E0,3.302369118E0,1.652720655E1
1.233120574E1,1.477819443E1,6.460797310E0,6.269705296E0,1.730451204E1
1.233926225E1,1.380037022E1,9.494217873E0,5.913883209E0,1.776413256E1
1.234728823E1,1.399569607E1,1.322975731E1,4.831954956E0,1.985582473E1
1.235534474E1,1.990352440E1,2.174805450E1,-4.694505215E0,2.985241259E1
1.236337072E1,2.257534027E1,2.756157684E1,-7.567047596E0,3.642178902E1
1.237142723E1,2.168769836E1,2.907746124E1,-5.666002274E0,3.671455562E1
1.237945321E1,2.174450111E1,2.929671860E1,-4.419523239E0,3.675123447E1
1.238750972E1,2.106414223E1,2.763654709E1,-3.144620419E0,3.489076469E1
1.239553570E1,2.046873665E1,2.512598228E1,-2.580951214E0,3.251069785E1
1.240359221E1,1.892774963E1,2.280364799E1,-2.296329260E0,2.972438723E1
1.241161819E1,1.762291145E1,2.008124924E1,-3.490031242E0,2.694445949E1
1.241964418E1,1.420330906E1,1.670058060E1,-3.837745667E0,2.225694661E1
1.242770068E1,1.064990711E1,1.352488327E1,-3.341321230E0,1.753588939E1
1.243572667E1,8.346571922E0,1.123026276E1,-8.028566241E-1,1.401530032E1
1.244375265E1,7.127362251E0,9.786376953E0,3.645703793E-1,1.211219956E1
1.245180916E1,6.877107143E0,7.609481335E0,1.186436653E0,1.032503950E1
1.245983514E1,9.891739845E0,3.284606934E0,2.020368099E0,1.061682849E1
1.246786113E1,1.569575691E1,-1.388259888E0,4.148220062E0,1.629391851E1
1.247591763E1,2.219349861E1,-8.032047272E0,6.429819107E0,2.446237392E1
1.248394362E1,3.050212479E1,-1.987956429E1,9.842255592E0,3.771533757E1
1.249196961E1,3.557548904E1,-3.459571457E1,1.083876228E1,5.079328356E1
1.250002611E1,3.413325500E1,-4.153538513E1,1.530151463E1,5.589636540E1
1.250805210E1,2.716069794E1,-4.048829269E1,1.875795364E1,5.223855073E1
1.251610860E1,1.992187881E1,-3.561482239E1,2.182529831E1,4.627786161E1
1.252413458E1,1.378969765E1,-3.194188309E1,2.239471626E1,4.137587428E1
1.253219109E1,8.027027130E0,-2.819903183E1,1.830989265E1,3.456690223E1
1.254021708E1,2.675176144E0,-2.285676384E1,1.327308846E1,2.656620217E1
1.254824306E1,-1.253318071E0,-1.724000549E1,9.301980019E0,1.962945307E1
1.255629956E1,-4.323152542E0,-1.307066059E1,6.576720715E0,1.525729568E1
1.256432555E1,-7.012159348E0,-9.353583336E0,4.670522213E0,1.258863288E1
1.257238205E1,-9.058351517E0,-6.615899086E0,2.294803858E0,1.144945316E1
1.258040804E1,-1.081924438E1,-4.592243671E0,-3.381552696E-1,1.175836298E1
1.258846454E1,-1.514037228E1,-3.250408649E0,-8.275938034E0,1.755810865E1
1.259649053E1,-2.108371925E1,-1.564160824E0,-1.316269398E1,2.490434358E1
1.260451652E1,-2.116087532E1,-1.782288551E-1,-1.069640827E1,2.371133821E1
1.261254250E1,-2.037211418E1,1.628069401E0,-9.368892670E0,2.248221066E1
1.262059901E1,-2.127912521E1,3.816974163E0,-8.125907898E0,2.309547230E1
1.262862499E1,-2.296050072E1,5.942191601E0,-6.848245621E0,2.468588063E1
1.263668150E1,-2.409161949E1,6.733183861E0,-5.730904102E0,2.566291403E1
1.264470748E1,-2.292041397E1,7.261343002E0,-4.081555367E0,2.438711900E1
1.265273347E1,-1.933645248E1,8.011494637E0,-3.870532036E0,2.128528739E1
1.266078997E1,-1.565514946E1,9.184377670E0,-5.753100395E0,1.904034301E1
1.266881596E1,-1.250928116E1,1.057264137E1,-7.762928963E0,1.812528418E1
1.267687246E1,-9.973155975E0,1.216028309E1,-9.477935791E0,1.836212384E1
1.268489845E1,-7.392715931E0,1.386294365E1,-1.204963112E1,1.979967337E1
1.269295495E1,-3.993459702E0,1.310710144E1,-1.150940990E1,1.789442217E1
1.270098094E1,-1.378538132E0,9.475537300E0,-8.444453239E0,1.276694815E1
1.270900692E1,1.321194172E-1,7.690503597E0,-4.903114796E0,9.121504033E0
1.271706343E1,-8.607435226E-1,7.901309013E0,-9.374427795E-1,8.003147037E0
1.272508941E1,-2.601071835E0,8.343626976E0,-8.831441998E-1,8.784169254E0
1.273314592E1,-4.541831493E0,8.592044830E0,-5.853992105E-1,9.736229245E0
1.274117190E1,-5.298158646E0,8.315696716E0,1.651777029E-1,9.861469494E0
1.274919789E1,-5.259554863E0,6.416745186E0,-1.796814203E-1,8.298784342E0
1.275725439E1,-5.022658348E0,2.997420788E0,-1.053628802E0,5.943211414E0
1.276528038E1,-5.630941391E0,-4.003735542E0,-4.456501007E-1,6.923583122E0
1.277330636E1,-5.115656376E0,-1.230315399E1,4.026196480E0,1.391933175E1
1.278136287E1,-3.918461323E0,-2.242447281E1,3.210526466E0,2.298953675E1
1.278938885E1,-4.431914330E0,-2.769075394E1,6.100987434E0,2.869915967E1
1.279741484E1,-7.421585083E0,-2.843213654E1,4.654595852E0,2.975116091E1
1.280547134E1,-1.303056049E1,-2.574257278E1,-9.101772308E-1,2.886700509E1
1.281349733E1,-1.012492275E1,-2.238871002E1,1.908340454E-1,2.457244015E1
1.282155383E1,-6.775184155E0,-1.985522461E1,1.412240505E0,2.102682781E1
1.282957982E1,-4.294928074E0,-1.604595566E1,1.922203302E0,1.672166157E1
1.283763632E1,-2.145482302E0,-1.262674332E1,2.199739933E0,1.299525286E1
1.284566231E1,-2.947745323E-1,-1.040579987E1,2.460651398E0,1.069683917E1
1.285371881E1,1.692735910E0,-9.835522652E0,3.086546183E0,1.044651272E1
1.286174480E1,3.590245008E0,-9.868936539E0,3.757865429E0,1.115380295E1
1.286977078E1,5.772842884E0,-9.537931442E0,4.137593746E0,1.189191041E1
1.287782729E1,8.051501274E0,-9.315472603E0,4.649958134E0,1.316156576E1
1.288585327E1,1.005294895E1,-8.971121788E0,4.982310295E0,1.436545247E1
1.289390978E1,1.113517570E1,-8.472215652E0,5.808139324E0,1.514942436E1
1.290193576E1,1.252370548E1,-8.177832603E0,5.291031361E0,1.586553365E1
1.290996175E1,1.466629791E1,-7.711503983E0,4.780893326E0,1.724600038E1
1.291801825E1,1.672124100E1,-7.554180145E0,4.265935898E0,1.883782756E1
1.292604424E1,1.944321632E1,-7.211928368E0,3.790994406E0,2.108132373E1
1.293407023E1,2.137403488E1,-5.783609390E0,3.228040934E0,2.237676815E1
1.294212673E1,2.198069572E1,-4.013173103E0,2.450026035E0,2.247797078E1
1.295015272E1,2.162932968E1,-2.620121956E0,1.336629391E0,2.182841084E1
1.295820922E1,2.848823738E1,1.861490250E0,-2.797514534E1,3.997065889E1
1.296623520E1,2.808938980E1,5.875310898E0,-1.527991581E1,3.251167367E1
1.297426119E1,1.598999882E1,4.006072998E0,-3.199909449E0,1.679190589E1
1.298228718E1,1.371592808E1,6.060286522E0,2.301565886E0,1.517072712E1
1.299034368E1,1.342048073E1,8.585593224E0,3.950327158E0,1.641422550E1
1.299836967E1,1.334090424E1,1.094726849E1,3.991808414E0,1.771318570E1
1.300639565E1,1.525846100E1,1.524036980E1,1.753713727E0,2.163712124E1
1.301445216E1,2.286133766E1,2.345086670E1,-4.142377853E0,3.301125873E1
1.302250866E1,2.359000206E1,2.749212265E1,-6.003701210E0,3.671987790E1
1.303053465E1,2.316559601E1,2.897639084E1,-6.150838852E0,3.760463912E1
1.303856063E1,2.323774147E1,2.886791039E1,-7.600957394E0,3.783019207E1
1.304658662E1,2.219621658E1,2.742198563E1,-7.967776299E0,3.616798011E1
1.305464312E1,1.894885445E1,2.471823502E1,-6.892136097E0,3.189908725E1
1.306266911E1,1.686408043E1,2.042475891E1,-5.004377842E0,2.695573748E1
1.307069509E1,1.326225948E1,1.582521439E1,-3.142303228E0,2.088537782E1
1.307875160E1,1.039150047E1,1.231181812E1,-5.857995749E-1,1.612164101E1
1.308677758E1,9.652547836E0,9.687026978E0,8.954980373E-1,1.370445505E1
1.309480357E1,1.044131660E1,6.762210846E0,1.946483612E0,1.259116303E1
1.310286007E1,1.476202393E1,2.523285389E0,2.892419338E0,1.525288200E1
1.311088606E1,1.967160797E1,-3.609038353E0,5.071891785E0,2.063301733E1
1.311891205E1,2.429683304E1,-1.040908337E1,6.581315994E0,2.723965551E1
1.312696855E1,2.916038704E1,-2.093188095E1,7.678627014E0,3.670739878E1
1.313499454E1,3.145217323E1,-3.171072388E1,7.353537560E0,4.526459681E1
1.314302052E1,3.173334122E1,-3.772302246E1,1.012911129E1,5.032524480E1
1.315107703E1,2.668149185E1,-3.988201904E1,1.248412991E1,4.958155857E1
1.315910301E1,2.099881744E1,-3.912553787E1,1.656539345E1,4.739377921E1
1.316712900E1,1.681297874E1,-3.852624130E1,2.257293701E1,4.771252465E1
1.317518550E1,1.020734310E1,-3.581803513E1,2.380194473E1,4.420015912E1
1.318321149E1,3.396089554E0,-2.967440033E1,1.878477097E1,3.528414771E1
1.319126799E1,-8.204226494E-1,-2.348543167E1,1.335207653E1,2.702806952E1
1.319929398E1,-4.075316906E0,-1.775071335E1,9.304093361E0,2.045145925E1
1.320731996E1,-6.907639027E0,-1.350540829E1,5.968722343E0,1.630144706E1
1.321537647E1,-8.689428329E0,-9.765488625E0,4.421631336E0,1.379933899E1
1.322340245E1,-1.038518143E1,-7.712781906E0,1.504997730E0,1.302321067E1
1.323145896E1,-1.151730251E1,-6.152345181E0,-8.218610287E-2,1.305780851E1
1.323948494E1,-1.423277473E1,-4.263996124E0,-4.642034054E0,1.556605344E1
1.324751093E1,-1.781337357E1,-2.354725361E0,-7.370217323E0,1.942115117E1
1.325556743E1,-1.973542595E1,-6.039762497E-2,-7.304499626E0,2.104391599E1
1.326359342E1,-2.124909210E1,2.539729595E0,-6.921240330E0,2.249172535E1
1.327161941E1,-2.230870819E1,4.243213654E0,-6.391602993E0,2.359101338E1
1.327967591E1,-2.388799667E1,6.247294903E0,-4.884184837E0,2.516982996E1
1.328770189E1,-2.448191833E1,7.806342602E0,-4.640637398E0,2.611204369E1
1.329575840E1,-2.146153450E1,9.263231277E0,-4.560110092E0,2.381595098E1
1.330378438E1,-1.723894882E1,1.078981686E1,-5.283239841E0,2.101223757E1
1.331181037E1,-1.372479248E1,1.212722206E1,-6.394251347E0,1.939912096E1
1.331986687E1,-1.034258556E1,1.372777367E1,-7.431604862E0,1.872564009E1
1.332789286E1,-7.438513756E0,1.500261974E1,-7.708247185E0,1.843440156E1
1.333594936E1,-5.288810730E0,1.609117699E1,-7.937294960E0,1.870556460E1
1.334400587E1,-3.848803520E0,1.653695297E1,-8.926887512E0,1.918263336E1
1.335203185E1,-1.765365601E0,1.486522865E1,-9.008634567E0,1.747132037E1
1.336005784E1,8.084113598E-1,1.132929802E1,-9.500090599E0,1.480737127E1
1.336811434E1,2.235783577E0,8.975399971E0,-6.594783306E0,1.135991636E1
1.337614033E1,9.645676613E-1,8.643048286E0,-2.965186119E0,9.188307960E0
1.338419683E1,-2.035703182E0,9.102884293E0,1.522381306E-1,9.328974560E0
1.339222282E1,-4.013088226E0,9.317057610E0,8.300269246E-1,1.017847652E1
1.340027932E1,-4.709799290E0,9.253591537E0,3.522925377E-1,1.038919033E1
1.340830531E1,-5.294200897E0,8.718043327E0,-1.305693388E-1,1.020048484E1
1.341633129E1,-6.706604958E0,6.341471195E0,-8.184040070E0,1.233577395E1
1.342438780E1,-6.536101818E0,4.245889187E0,4.675412178E-2,7.794253519E0
1.343241378E1,-6.104760170E0,1.146331787E0,-1.735978723E0,6.449480245E0
1.344047029E1,-6.939111710E0,-4.233706474E0,-6.443914413E0,1.037302149E1
1.344849627E1,-8.885354042E0,-1.094134521E1,3.881442547E-1,1.410011374E1
1.345652226E1,-9.735846519E0,-2.068589211E1,3.956575394E-1,2.286590004E1
