"Time (s)","Linear Acceleration x (m/s^2)","Linear Acceleration y (m/s^2)","Linear Acceleration z (m/s^2)","Absolute acceleration (m/s^2)"
3.667123000E-3,-3.398029804E-1,-4.401707649E-2,5.096340179E-2,3.464113694E-1
1.172362000E-2,-7.165241241E-2,-1.996401548E-1,9.416065216E-1,9.652010677E-1
1.974960000E-2,-1.511397362E-1,-1.495914459E-1,1.312453270E0,1.329569256E0
2.777558000E-2,-2.610466480E-1,-1.543641090E-2,1.388569832E0,1.412979056E0
3.580155900E-2,-3.796617985E-1,1.968439817E-1,1.229945183E0,1.302173486E0
4.382753900E-2,-4.891211987E-1,4.501081705E-1,7.905893326E-1,1.032893220E0
5.188403500E-2,-4.705619812E-1,5.928822756E-1,1.417398453E-1,7.700832128E-1
5.991001500E-2,-3.451712132E-1,6.180902719E-1,-5.521488190E-1,8.978012413E-1
6.793599500E-2,-2.739963531E-1,6.613918543E-1,-1.159528732E0,1.362725236E0
7.596197500E-2,-4.434103966E-1,6.399481297E-1,-1.472692013E0,1.665823566E0
8.398795400E-2,-7.810723782E-1,5.551840067E-1,-1.687281132E0,1.940417728E0
9.201393400E-2,-1.081658840E0,4.356715679E-1,-1.746971607E0,2.100405998E0
1.000704300E-1,-1.305487633E0,2.716771364E-1,-1.467349052E0,1.982730357E0
1.080964090E-1,-1.367305040E0,1.274688244E-1,-1.070031166E0,1.740901511E0
1.161223890E-1,-1.291009426E0,4.458630085E-2,-6.995153427E-1,1.469018377E0
1.241483680E-1,-1.189333677E0,-3.673875332E-2,-1.598367691E-1,1.200588241E0
1.321743490E-1,-1.030708075E0,-5.732083321E-2,1.203088760E-1,1.039287755E0
1.402003290E-1,-9.407086372E-1,5.163311958E-3,2.979726791E-1,9.867862572E-1
1.482568250E-1,-9.073722363E-1,1.453387737E-1,2.614259720E-1,9.554011059E-1
1.562828040E-1,-9.406054020E-1,2.531564236E-1,6.312465668E-2,9.761205967E-1
1.643087840E-1,-9.142408371E-1,3.659235239E-1,-3.461170197E-1,1.043807130E0
1.723347630E-1,-9.058248997E-1,4.584310055E-1,-8.000154495E-1,1.292556558E0
1.803607430E-1,-9.335300922E-1,5.069532394E-1,-1.113453865E0,1.538915050E0
1.884172400E-1,-1.006138563E0,4.834058285E-1,-1.273788929E0,1.693674774E0
1.964432200E-1,-1.063887835E0,4.982570410E-1,-1.327630997E0,1.772772255E0
2.044691990E-1,-1.107764482E0,4.889830947E-1,-1.178612709E0,1.689785351E0
2.124951790E-1,-1.102142572E0,4.875639081E-1,-8.914575577E-1,1.499044159E0
2.205211580E-1,-1.032021284E0,4.915812016E-1,-5.078630447E-1,1.250857658E0
2.285471380E-1,-8.507268429E-1,5.031104684E-1,-1.372089386E-1,9.978389637E-1
2.365731170E-1,-7.183525562E-1,5.405393243E-1,8.526420593E-2,9.030410516E-1
2.446296150E-1,-5.830063820E-1,5.461494327E-1,2.917604446E-1,8.504703412E-1
2.526555940E-1,-5.714900494E-1,4.305174351E-1,3.538064957E-1,7.982012120E-1
2.606815740E-1,-4.800240993E-1,3.347780108E-1,2.530050278E-1,6.375821489E-1
2.687075530E-1,-5.252363682E-1,4.085732698E-1,5.896568298E-2,6.680436446E-1
2.767335330E-1,-5.185468197E-1,4.378711581E-1,-1.017932892E-1,6.862826160E-1
2.847900300E-1,-4.516403675E-1,4.936721921E-1,-2.377347946E-1,7.100768179E-1
2.928160090E-1,-4.208106995E-1,5.795325041E-1,-3.713855743E-1,8.067631703E-1
3.008419890E-1,-4.805099964E-1,6.604670882E-1,-4.650316238E-1,9.398728863E-1
3.088679690E-1,-5.215635300E-1,7.603977919E-1,-5.596265793E-1,1.078617275E0
3.168939480E-1,-5.931229591E-1,8.619738221E-1,-5.644702911E-1,1.188873595E0
3.249504450E-1,-6.315352917E-1,8.836482167E-1,-4.558420181E-1,1.177906168E0
3.329764250E-1,-5.954542160E-1,8.560981154E-1,-3.322858810E-1,1.094478695E0
3.410024040E-1,-5.257620811E-1,7.420003414E-1,-9.962081909E-2,9.148303560E-1
3.490283840E-1,-4.024679661E-1,6.682821512E-1,2.478742599E-1,8.185494158E-1
3.570543640E-1,-3.541314602E-1,5.876582861E-1,5.842704773E-1,9.011788629E-1
3.651108600E-1,-2.576828003E-1,4.895482063E-1,8.116779327E-1,9.822825145E-1
3.731368390E-1,-2.165510654E-1,4.214370251E-1,8.738613129E-1,9.940508660E-1
3.811628190E-1,-2.367849350E-1,4.183987975E-1,8.075714111E-1,9.398384134E-1
3.891887980E-1,-2.737615108E-1,5.216400027E-1,5.861282349E-1,8.310234443E-1
3.972147790E-1,-3.255620003E-1,6.443793178E-1,3.163986206E-1,7.882407045E-1
4.052712750E-1,-3.955740929E-1,8.366419077E-1,2.176284790E-3,9.254476111E-1
4.132972540E-1,-3.950657845E-1,9.875440001E-1,-2.973489761E-1,1.104416832E0
4.213232340E-1,-3.775026798E-1,1.082799554E0,-5.017347336E-1,1.251679228E0
4.293492140E-1,-3.403549194E-1,1.106693029E0,-6.259756088E-1,1.316228094E0
4.373751930E-1,-2.683386803E-1,1.049507618E0,-6.394567490E-1,1.257925602E0
4.454011730E-1,-2.877504826E-1,9.873694181E-1,-6.257696152E-1,1.203863082E0
4.534271520E-1,-3.106358051E-1,8.758141398E-1,-4.989023209E-1,1.054726759E0
4.614531320E-1,-4.231717587E-1,7.759194970E-1,-2.754602432E-1,9.257449696E-1
4.695096290E-1,-4.055123329E-1,6.502020359E-1,1.619644165E-1,7.832211768E-1
4.775356090E-1,-3.464093208E-1,5.487562418E-1,6.561174393E-1,9.228341804E-1
4.855615880E-1,-2.869720459E-1,4.326388836E-1,1.217264175E0,1.323352346E0
4.935875680E-1,-2.558581829E-1,4.022477269E-1,1.570931435E0,1.641673602E0
5.016135470E-1,-2.616374493E-1,4.276310802E-1,1.662971497E0,1.736892827E0
5.096395270E-1,-2.549959421E-1,5.096812248E-1,1.563175201E0,1.663825289E0
5.176655060E-1,-2.422231436E-1,5.286827087E-1,1.378337860E0,1.495992217E0
5.256914860E-1,-1.417834759E-1,5.391325355E-1,1.052716255E0,1.191208613E0
5.337479830E-1,5.502700806E-4,5.870033503E-1,7.723979950E-1,9.701401438E-1
5.417739630E-1,-2.566456795E-3,6.220805645E-1,6.016073227E-1,8.654029039E-1
5.497999420E-1,7.513165474E-3,5.414392352E-1,4.852361679E-1,7.270949262E-1
5.578259220E-1,1.501166821E-2,4.510105252E-1,4.519481659E-1,6.386650051E-1
5.658519010E-1,9.160065651E-2,2.771095634E-1,5.830612183E-1,6.520282008E-1
5.738778810E-1,1.889268160E-1,1.110268831E-1,7.992525101E-1,8.287489882E-1
5.819038610E-1,2.232195139E-1,2.866923809E-3,1.158034325E0,1.179355191E0
5.899298400E-1,1.582467556E-1,-7.267057896E-2,1.679069519E0,1.688075087E0
5.979863370E-1,7.072556019E-2,-9.064370394E-2,2.075796127E0,2.078977621E0
6.060123170E-1,5.212664604E-2,-2.158681750E-1,2.363353729E0,2.373764332E0
6.140382960E-1,1.503118277E-1,-3.968888819E-1,2.449252129E0,2.485749468E0
6.220642760E-1,2.077629566E-1,-5.685307980E-1,2.369798660E0,2.445881928E0
6.300902550E-1,1.503864527E-1,-7.023242116E-1,2.110527992E0,2.229395387E0
6.381162350E-1,9.006881714E-2,-7.550690770E-1,1.774209023E0,1.930300329E0
6.461422150E-1,-1.454937458E-2,-7.617393136E-1,1.355544090E0,1.554978536E0
6.541681940E-1,-1.636599302E-1,-6.338655949E-1,9.455013275E-1,1.150018663E0
6.622246910E-1,-3.184866905E-1,-5.585525632E-1,5.412893295E-1,8.404813360E-1
6.702506710E-1,-3.757357597E-1,-5.116998553E-1,1.185054779E-1,6.458000088E-1
6.782766500E-1,-4.159716368E-1,-5.052975416E-1,-1.604423523E-1,6.738692429E-1
6.863026300E-1,-3.817121983E-1,-6.153263450E-1,-5.493860245E-1,9.089310848E-1
6.943286100E-1,-2.038384676E-1,-8.400146961E-1,-9.547948837E-1,1.287947235E0
7.023545890E-1,-7.662451267E-2,-1.075744390E0,-1.199571609E0,1.613093102E0
7.103805690E-1,1.696265936E-1,-1.384858847E0,-1.413345337E0,1.985988985E0
7.184065480E-1,4.184577465E-1,-1.581257105E0,-1.627755165E0,2.307610841E0
7.264325280E-1,5.718452334E-1,-1.546970129E0,-1.763801098E0,2.414770768E0
7.344585070E-1,6.023593545E-1,-1.345780253E0,-1.687866211E0,2.241172378E0
7.425150040E-1,6.832525730E-1,-9.978363514E-1,-1.510481834E0,1.934959130E0
7.505409840E-1,8.839507103E-1,-6.815290451E-1,-1.361060143E0,1.760208911E0
7.585669640E-1,1.159483910E0,-5.263453722E-1,-1.246467590E0,1.781887718E0
7.665929430E-1,1.416495204E0,-2.796418071E-1,-1.099287987E0,1.814687929E0
7.746189230E-1,1.734503508E0,-4.987823963E-2,-9.578790665E-1,1.982050091E0
7.826449020E-1,2.014232635E0,1.232578158E-1,-8.574571609E-1,2.192614508E0
7.906708820E-1,2.262385607E0,2.221163511E-1,-8.239831924E-1,2.417989373E0
7.986968610E-1,2.404802322E0,2.181494832E-1,-9.241914749E-1,2.585496720E0
8.067533590E-1,2.514553070E0,1.508327723E-1,-1.023757935E0,2.719155747E0
8.147793380E-1,2.465081215E0,7.147526741E-2,-1.115515709E0,2.706678667E0
8.228053180E-1,2.172127008E0,2.836561203E-2,-1.125421524E0,2.446531004E0
8.308312970E-1,1.825933456E0,-3.430688381E-2,-1.087274551E0,2.125411936E0
8.388572770E-1,1.523075581E0,-5.759322643E-2,-9.822120667E-1,1.813233782E0
8.468832560E-1,1.199927092E0,-1.057982445E-1,-8.701486588E-1,1.485993601E0
8.549397530E-1,9.346946478E-1,-1.646840572E-1,-7.582187653E-1,1.214771838E0
8.629657330E-1,7.602314949E-1,-2.232440114E-1,-7.300472260E-1,1.077385152E0
8.709917130E-1,6.117824912E-1,-2.691193819E-1,-7.519559860E-1,1.006052118E0
8.790176920E-1,5.480941534E-1,-2.818319201E-1,-7.640857697E-1,9.816636367E-1
8.870436720E-1,5.300297737E-1,-2.367449999E-1,-7.808732986E-1,9.730071246E-1
8.950696510E-1,5.844542980E-1,-1.487931609E-1,-7.856435776E-1,9.904352893E-1
9.030956310E-1,6.249148250E-1,-6.089711189E-2,-8.525762558E-1,1.058826364E0
9.111521280E-1,5.995662808E-1,-3.593039513E-2,-8.596324921E-1,1.048684290E0
9.191781080E-1,5.385960340E-1,2.087712288E-2,-8.498840332E-1,1.006391779E0
9.272040870E-1,4.794235229E-1,4.973304272E-2,-8.497505188E-1,9.769320519E-1
9.352300670E-1,4.781736135E-1,5.212742090E-2,-8.927698135E-1,1.014103157E0
9.432560460E-1,4.445627332E-1,4.924464226E-2,-9.237804413E-1,1.026368044E0
9.512820260E-1,3.526122868E-1,5.484962463E-2,-9.330129623E-1,9.989279724E-1
9.593080050E-1,2.728148103E-1,1.001526117E-1,-9.338865280E-1,9.780605879E-1
9.673339850E-1,2.597390413E-1,1.869376302E-1,-8.561887741E-1,9.140400779E-1
9.753904820E-1,2.584918141E-1,3.354088664E-1,-8.019714355E-1,9.069042447E-1
9.834164620E-1,2.915945053E-1,4.715152383E-1,-8.119039536E-1,9.831286819E-1
9.914424410E-1,3.735792637E-1,5.799310803E-1,-8.260297775E-1,1.076200129E0
9.994684210E-1,4.590076804E-1,7.260494232E-1,-9.018840790E-1,1.245484126E0
1.007494400E0,5.183293223E-1,8.087643385E-1,-1.003786087E0,1.389370919E0
1.015520380E0,5.379081964E-1,9.036090374E-1,-1.093661308E0,1.517217709E0
1.023546359E0,4.768624902E-1,9.933681488E-1,-1.123989105E0,1.574017034E0
1.031572339E0,3.793132007E-1,1.067339063E0,-1.090199471E0,1.572140599E0
1.039598319E0,2.047763169E-1,1.052717924E0,-9.487009048E-1,1.431845583E0
1.047654816E0,8.539873362E-2,9.170397520E-1,-7.576818466E-1,1.192617554E0
1.055680795E0,-2.274164557E-2,7.117321491E-1,-6.150531769E-1,9.409411485E-1
1.063706775E0,-1.025688946E-1,5.734614134E-1,-4.888210297E-1,7.604764098E-1
1.071732754E0,-2.119615078E-1,4.828954935E-1,-3.503961563E-1,6.331612787E-1
1.079758734E0,-3.272992969E-1,3.986622095E-1,-1.997137070E-1,5.531201965E-1
1.087784714E0,-4.337542355E-1,2.334500551E-1,-2.382564545E-2,4.931625761E-1
1.095810693E0,-4.319296479E-1,1.119073629E-1,1.129159927E-1,4.602569935E-1
1.103836673E0,-3.506983519E-1,-1.496434212E-2,1.504850388E-1,3.819149283E-1
1.111893170E0,-3.049895763E-1,-1.082754135E-1,2.354745865E-1,4.002380388E-1
1.119919149E0,-4.169881940E-1,-1.971698999E-1,3.638248444E-1,5.874722468E-1
1.127945129E0,-5.194913745E-1,-2.850439548E-1,4.386940002E-1,7.372745555E-1
1.135971108E0,-6.549462676E-1,-4.006320238E-1,4.765129089E-1,9.036178309E-1
1.143997088E0,-6.702820063E-1,-5.477423668E-1,4.787683487E-1,9.892010918E-1
1.152023068E0,-6.472874284E-1,-6.090130806E-1,5.699357986E-1,1.055795796E0
1.160079564E0,-7.499094009E-1,-6.664420366E-1,7.855615616E-1,1.274211939E0
1.168105544E0,-9.660717249E-1,-6.288069487E-1,1.091948509E0,1.587779677E0
1.176131524E0,-1.294372797E0,-5.456057787E-1,1.611177444E0,2.137517102E0
1.184157503E0,-1.359926105E0,-4.670208693E-1,2.158979416E0,2.593973712E0
1.192183483E0,-1.233309984E0,-6.013381481E-1,2.443346977E0,2.802250085E0
1.200209463E0,-1.172715187E0,-9.563798308E-1,2.708476067E0,3.102541844E0
1.208265959E0,-8.595029712E-1,-1.362504244E0,2.815250397E0,3.243577958E0
1.216291938E0,-4.272683263E-1,-1.580441594E0,2.588915825E0,3.063142015E0
1.224317918E0,1.189928949E-1,-1.909071684E0,2.294604301E0,2.987293575E0
1.232343897E0,4.469466805E-1,-1.946125627E0,2.104462624E0,2.901022100E0
1.240369878E0,4.386191666E-1,-2.026611328E0,1.776288033E0,2.730336870E0
1.248426374E0,4.684329033E-1,-1.948184967E0,1.923077583E0,2.777243497E0
1.256452354E0,5.240963697E-1,-1.737779140E0,2.444454193E0,3.044652632E0
1.264478333E0,5.755596161E-1,-1.181955338E0,3.209496498E0,3.468307233E0
1.272504313E0,5.042933822E-1,-7.661615014E-1,3.434224129E0,3.554604145E0
1.280530292E0,4.075279832E-1,-4.859334230E-1,3.328303337E0,3.388187340E0
1.288556272E0,6.163229346E-1,-5.728051662E-1,2.713526726E0,2.840983458E0
1.296612769E0,1.247542858E0,-3.459038734E-1,1.966274261E0,2.354197771E0
1.304638748E0,1.696099997E0,-3.536779881E-1,1.009678841E0,2.005316603E0
1.312664728E0,1.566892743E0,-7.229609489E-1,-1.753921509E-1,1.734528123E0
1.320690708E0,9.740940928E-1,-1.585502863E0,-9.529266357E-1,2.090633350E0
1.328716687E0,4.904442430E-1,-2.522112370E0,-1.538464546E0,2.994738640E0
1.336742667E0,4.164422154E-1,-3.147485733E0,-2.314778805E0,3.929159131E0
1.344799164E0,4.342550635E-1,-3.741913319E0,-2.910069942E0,4.760147037E0
1.352825143E0,2.336058915E-1,-4.460761070E0,-3.265971661E0,5.533491838E0
1.360851123E0,-3.146928549E-1,-4.966799736E0,-3.704959393E0,6.204422238E0
1.368877103E0,-7.153654099E-1,-4.529944420E0,-4.220346451E0,6.232452830E0
1.376903082E0,-1.135060310E0,-2.943980455E0,-3.957691193E0,5.061492113E0
1.384959579E0,-1.883813024E0,-1.199299335E0,-2.128886223E0,3.085324449E0
1.392985559E0,-2.306540489E0,-3.758280277E-1,-1.372182846E0,2.710029796E0
1.401011538E0,-1.991151690E0,-2.005742788E-1,-1.074607849E0,2.271496671E0
1.409037518E0,-1.940029144E0,-2.137717009E-1,-7.339382172E-1,2.085204241E0
1.417063497E0,-1.594932795E0,-4.336830378E-1,-2.358493805E-1,1.669585735E0
1.425089477E0,-9.136881828E-1,-1.159096718E0,4.694490433E-1,1.548778132E0
1.433115457E0,-3.663031459E-1,-1.868284106E0,1.203206062E0,2.252191893E0
1.441141436E0,2.920506299E-1,-2.638821602E0,1.148829460E0,2.892832893E0
1.449167416E0,5.242074132E-1,-2.936044216E0,7.923460007E-1,3.085929558E0
1.457193395E0,7.147679925E-1,-2.682371140E0,4.260520935E-1,2.808474426E0
1.465249892E0,8.534393311E-1,-2.035508394E0,9.637641907E-2,2.209285298E0
1.473275872E0,9.038009644E-1,-1.465352535E0,-1.533832550E-1,1.728479291E0
1.481301852E0,9.778650403E-1,-9.767732620E-1,-7.409362793E-1,1.568213191E0
1.489327831E0,5.979049206E-1,-5.382939577E-1,-1.395880699E0,1.611128054E0
1.497353811E0,3.048563004E-2,-1.335244179E-1,-1.750691414E0,1.756040595E0
1.505379790E0,-4.172737002E-1,5.079364777E-2,-2.383470535E0,2.420253939E0
1.513405770E0,-6.126679778E-1,-1.457467079E-1,-2.933697224E0,3.000530545E0
1.521431749E0,-9.033070207E-1,-2.493960857E-1,-3.198493481E0,3.332945023E0
1.529457729E0,-1.176680088E0,-3.402125835E-1,-3.317929745E0,3.536803419E0
1.537483709E0,-1.562190294E0,-3.956328630E-1,-3.203349590E0,3.585862863E0
1.545540206E0,-1.895152092E0,-2.368206978E-1,-2.378119469E0,3.050104540E0
1.553566185E0,-5.336836576E-1,-7.135853767E-1,-1.502135754E0,1.746549215E0
1.561592165E0,1.188271165E0,-1.929983854E0,-1.993519783E0,3.018434555E0
1.569618144E0,1.070710897E0,-2.734514236E0,-2.276186466E0,3.715510027E0
1.577644124E0,2.622635365E-1,-2.755324125E0,-1.991068363E0,3.409537568E0
1.585670103E0,-1.488466263E-1,-2.518987179E0,-2.308536530E0,3.420057402E0
1.593696083E0,-2.976472378E-1,-1.979498506E0,-2.627950668E0,3.303503130E0
1.601752580E0,1.095376015E-1,-1.322905064E0,-2.814089298E0,3.111458641E0
1.609778560E0,7.077944279E-1,-1.033804297E0,-3.057464123E0,3.304211122E0
1.617804539E0,1.364315033E0,-9.937251806E-1,-3.862389565E0,4.215079880E0
1.625830519E0,9.282143116E-1,-9.255369902E-1,-3.748085499E0,3.970685764E0
1.633856498E0,4.865176678E-1,-8.615341783E-1,-2.855587006E0,3.022137940E0
1.641882478E0,9.903011322E-1,-1.011681318E0,-2.230765820E0,2.642065776E0
1.649908458E0,1.966908455E0,-1.399927855E0,-2.041923046E0,3.161957715E0
1.657964955E0,2.639070034E0,-1.641312957E0,-2.088034153E0,3.744126799E0
1.665990934E0,3.039067745E0,-1.693720937E0,-1.634394646E0,3.843939285E0
1.674016914E0,3.108733177E0,-1.569742322E0,-1.685248852E0,3.868898631E0
1.682042893E0,3.127103806E0,-1.593992472E0,-1.908047199E0,3.995026198E0
1.690068873E0,2.637596607E0,-1.883788824E0,-1.830315590E0,3.722315322E0
1.698125369E0,2.323609829E0,-2.294153452E0,-1.901572227E0,3.778661090E0
1.706151349E0,2.157510757E0,-2.561128855E0,-2.108739853E0,3.957400339E0
1.714177329E0,2.121490955E0,-2.649686098E0,-2.421597481E0,4.169615648E0
1.722203309E0,2.159945011E0,-2.741314650E0,-2.737620831E0,4.435621295E0
1.730229288E0,1.971827030E0,-2.875188351E0,-2.530834675E0,4.308124190E0
1.738285784E0,1.899938583E0,-2.832170010E0,-1.934521675E0,3.920883535E0
1.746311764E0,2.577919483E0,-2.546518803E0,-1.121736050E0,3.793246451E0
1.754337743E0,3.883862495E0,-2.283521891E0,-1.824712753E-2,4.505462581E0
1.762363723E0,5.356832504E0,-2.572449684E0,1.195435047E0,6.061535846E0
1.770389703E0,6.417746544E0,-3.615914822E0,1.591346741E0,7.536225524E0
1.778415682E0,6.672983170E0,-4.511949539E0,1.332213402E0,8.164630155E0
1.786472179E0,6.483475685E0,-5.408403873E0,9.013876915E-1,8.491100588E0
1.794498159E0,5.989582062E0,-5.992856979E0,5.313143730E-1,8.489506641E0
1.802524138E0,5.246086121E0,-6.267445087E0,8.500695229E-2,8.173708686E0
1.810550118E0,4.793103218E0,-5.526246071E0,-2.610127926E-1,7.319929082E0
1.818576098E0,3.568987846E0,-5.394935608E0,-1.301484108E-1,6.469926048E0
1.826632595E0,2.242014885E0,-5.296035767E0,1.312036514E-1,5.752550737E0
1.834658574E0,1.406367302E0,-4.788475990E0,4.408311844E-1,5.010160020E0
1.842684554E0,9.360342026E-1,-3.864302635E0,8.091692924E-1,4.057554661E0
1.850710533E0,5.164070129E-1,-2.985817671E0,1.269004583E0,3.285141702E0
1.858736513E0,3.109645844E-2,-2.438258648E0,1.734375000E0,2.992345044E0
1.866793010E0,-2.760839462E-1,-2.054155827E0,1.950864196E0,2.846339687E0
1.874818989E0,-3.625278473E-1,-1.658971667E0,2.088247299E0,2.691540491E0
1.882844969E0,-3.868255615E-1,-1.238567710E0,2.012225628E0,2.394313255E0
1.890870949E0,-4.572219849E-1,-1.037407994E0,1.965600371E0,2.269108219E0
1.898927445E0,-6.691303253E-1,-1.080181837E0,1.905994296E0,2.290707849E0
1.906953425E0,-7.850322723E-1,-1.218662977E0,1.860523224E0,2.358593180E0
1.914979405E0,-8.597974777E-1,-1.342050552E0,1.859259605E0,2.448917652E0
1.923005384E0,-9.119167328E-1,-1.511333108E0,1.924867392E0,2.611672714E0
1.931031364E0,-9.953565598E-1,-1.777144194E0,2.020992041E0,2.869387564E0
1.939087860E0,-1.010520935E0,-2.051831722E0,2.097217321E0,3.103141387E0
1.947113840E0,-8.789606094E-1,-2.371639013E0,2.112356901E0,3.295344449E0
1.955139819E0,-8.258323669E-1,-2.710175037E0,2.029904127E0,3.485334790E0
1.963165799E0,-8.677282333E-1,-2.877289295E0,1.849978447E0,3.529046079E0
1.971222296E0,-1.030517578E0,-3.129399776E0,1.608810544E0,3.666521622E0
1.979248275E0,-1.062113762E0,-3.261443138E0,1.335090041E0,3.680701347E0
1.987274255E0,-8.402566910E-1,-3.202783108E0,1.105378866E0,3.490804117E0
1.995300235E0,-6.066093445E-1,-3.041590691E0,1.003782511E0,3.259881617E0
2.003326214E0,-3.328790665E-1,-2.827259541E0,8.886521459E-1,2.982265518E0
2.011382711E0,-1.655054092E-1,-2.601359844E0,8.387532830E-1,2.738242529E0
2.019408691E0,-1.551094055E-1,-2.344127178E0,8.202274442E-1,2.488325585E0
2.027434670E0,-1.416072845E-1,-2.133573055E0,8.143529892E-1,2.288090338E0
2.035460650E0,-1.776094437E-1,-1.937348723E0,8.409429193E-1,2.119445726E0
2.043486629E0,-3.254547119E-1,-1.733826518E0,9.096096158E-1,1.984808509E0
2.051512609E0,-4.343461990E-1,-1.601502180E0,1.057422876E0,1.967640463E0
2.059569106E0,-6.095514297E-1,-1.464830518E0,1.316574216E0,2.061710226E0
2.067595086E0,-8.871021271E-1,-1.308833003E0,1.604245424E0,2.252464738E0
2.075621065E0,-1.142061234E0,-1.120718002E0,1.814368844E0,2.419141791E0
2.083647045E0,-1.417468071E0,-8.595862389E-1,2.092206001E0,2.669350143E0
2.091673024E0,-1.521861076E0,-5.953371525E-1,2.319202900E0,2.837109366E0
2.099699004E0,-1.442943573E0,-3.340349197E-1,2.504091740E0,2.909319667E0
2.107755501E0,-1.293303490E0,-6.911444664E-2,2.604707718E0,2.908936751E0
2.115781481E0,-1.115809441E0,1.353790760E-1,2.662106276E0,2.889665729E0
2.123807460E0,-8.414497375E-1,2.608392239E-1,2.659618855E0,2.801722187E0
2.131833440E0,-5.493049622E-1,2.352526188E-1,2.547476053E0,2.616622628E0
2.139859419E0,-3.256864548E-1,2.065415382E-1,2.375289440E0,2.406393775E0
2.147885399E0,-1.374464035E-1,1.949064732E-1,2.161931276E0,2.175046411E0
2.155941895E0,-5.423545837E-3,2.287678719E-1,2.006332874E0,2.019340426E0
2.163967874E0,-3.452110291E-2,3.689413071E-1,1.816246271E0,1.853661218E0
2.171993855E0,-1.277875900E-1,5.082859993E-1,1.610271931E0,1.693416669E0
2.180019835E0,-9.301662445E-2,6.431658268E-1,1.452453256E0,1.591205465E0
2.188045814E0,4.567623138E-2,7.864508629E-1,1.312322259E0,1.530614579E0
2.196071794E0,2.308101654E-1,9.707474709E-1,1.206147194E0,1.565380158E0
2.204128290E0,9.788513184E-2,1.390490532E0,1.105031610E0,1.778803046E0
2.212154269E0,5.539703369E-1,1.795644283E0,7.869125605E-1,2.037266037E0
2.220180249E0,9.731016159E-1,2.083307266E0,4.077148736E-1,2.335236035E0
2.228206229E0,1.370466232E0,2.248552322E0,6.658813357E-2,2.634122097E0
2.236232208E0,1.660439491E0,2.281352520E0,-2.150655091E-1,2.829820100E0
2.244288705E0,2.019690514E0,2.215133667E0,-4.977960587E-1,3.038711544E0
2.252314685E0,2.329468727E0,2.108097315E0,-6.931000948E-1,3.217279376E0
2.260340664E0,2.714202881E0,1.934713840E0,-8.276557922E-1,3.434389179E0
2.268366644E0,3.091072083E0,1.757142782E0,-9.086520076E-1,3.669867279E0
2.276392623E0,3.321643829E0,1.619173050E0,-9.807915688E-1,3.823217388E0
2.284449121E0,3.562500954E0,1.428899527E0,-1.010070205E0,3.969056402E0
2.292475100E0,3.601327896E0,1.266050816E0,-9.013811350E-1,3.922363475E0
2.300501080E0,3.690610886E0,1.208400726E0,-7.581498623E-1,3.956719884E0
2.308527059E0,3.679111481E0,1.317158222E0,-7.248314023E-1,3.974436769E0
2.316553039E0,3.712637901E0,1.511180162E0,-8.588027954E-1,4.099376527E0
2.324579018E0,3.709432602E0,1.754912138E0,-1.077912450E0,4.242817706E0
2.332604998E0,3.872630119E0,1.794884920E0,-1.320319653E0,4.467898824E0
2.340661495E0,4.048913002E0,1.684391260E0,-1.501963615E0,4.635381874E0
2.348687475E0,4.348006248E0,1.502421379E0,-1.618409634E0,4.876646192E0
2.356713454E0,4.609543800E0,1.378577948E0,-1.688928604E0,5.099102964E0
2.364739434E0,4.886071205E0,1.284150839E0,-1.677482963E0,5.323221232E0
2.372765413E0,5.086165428E0,1.281204462E0,-1.615990877E0,5.488350403E0
2.380821910E0,5.293500900E0,1.441274405E0,-1.488679647E0,5.684592403E0
2.388847890E0,5.273899078E0,1.788561106E0,-1.283652067E0,5.714956251E0
2.396873870E0,4.880028725E0,2.321343660E0,-1.049084187E0,5.504897308E0
2.404899849E0,4.234525681E0,3.010456800E0,-9.247488976E-1,5.277235868E0
2.412925829E0,3.910413742E0,3.662251472E0,-9.006730914E-1,5.432737201E0
2.420951808E0,3.647697449E0,4.260484219E0,-8.725157976E-1,5.676152418E0
2.429008305E0,3.489066124E0,4.716958046E0,-8.678221107E-1,5.930968794E0
2.437034285E0,3.356823921E0,4.993176937E0,-9.596385956E-1,6.092699648E0
2.445060264E0,3.076581001E0,4.989411354E0,-1.137753963E0,5.971102109E0
2.453086244E0,2.917347908E0,4.642935753E0,-1.430377841E0,5.666899681E0
2.461112224E0,2.753252029E0,3.979216099E0,-1.785081506E0,5.157622852E0
2.469138203E0,2.611115456E0,3.170046568E0,-2.068760395E0,4.598574642E0
2.477194699E0,2.465853691E0,2.373006344E0,-2.173071861E0,4.053866654E0
2.485220679E0,2.451329231E0,1.491225481E0,-2.138102055E0,3.578302507E0
2.493246658E0,2.557374001E0,7.188911438E-1,-1.921569824E0,3.278627281E0
2.501272639E0,2.673243523E0,9.317970276E-2,-1.621350527E0,3.127889211E0
2.509298619E0,2.649933815E0,-3.051161766E-1,-1.317497492E0,2.975070545E0
2.517355115E0,2.556602478E0,-4.922285080E-1,-1.021650195E0,2.796832897E0
2.525381094E0,2.466392517E0,-4.930205345E-1,-7.582395077E-1,2.626992281E0
2.533407074E0,2.425504684E0,-3.785223961E-1,-5.844231844E-1,2.523470356E0
2.541433053E0,2.373449326E0,-2.677965164E-1,-4.678401947E-1,2.433896284E0
2.549489550E0,2.411448479E0,-1.951708794E-1,-4.992577434E-1,2.470310453E0
2.557515530E0,2.424090385E0,-2.114896774E-1,-5.507633686E-1,2.494851172E0
2.565541509E0,2.373860359E0,-2.862443924E-1,-6.693232059E-1,2.482970481E0
2.573567489E0,2.247967720E0,-4.023196697E-1,-7.691835165E-1,2.409743403E0
2.581593469E0,2.093558311E0,-6.055073738E-1,-8.805974722E-1,2.350548338E0
2.589649966E0,1.966964722E0,-8.629279137E-1,-9.472265244E-1,2.347516323E0
2.597675945E0,1.761083603E0,-1.143329859E0,-1.001355648E0,2.326226936E0
2.605701925E0,1.541895866E0,-1.458624601E0,-1.025084257E0,2.357080042E0
2.613727904E0,1.272643089E0,-1.738728762E0,-1.026207089E0,2.386608290E0
2.621784401E0,9.752311707E-1,-1.976003408E0,-9.818811417E-1,2.412417021E0
2.629810381E0,6.171703339E-1,-2.169425726E0,-9.001847506E-1,2.428505669E0
2.637836361E0,2.914571762E-1,-2.288953066E0,-8.240186572E-1,2.450155132E0
2.645862340E0,-4.149436951E-3,-2.351609707E0,-7.035194039E-1,2.454592631E0
2.653918836E0,-2.363052368E-1,-2.426659584E0,-5.740051866E-1,2.504795172E0
2.661944816E0,-4.724235535E-1,-2.532204151E0,-4.377759099E-1,2.612831725E0
2.669970795E0,-6.574659348E-1,-2.708492756E0,-3.423667550E-1,2.808097124E0
2.677996775E0,-8.061256409E-1,-2.877847195E0,-2.728688717E-1,3.001049891E0
2.686053272E0,-9.066867828E-1,-3.115320206E0,-1.874333620E-1,3.249989565E0
2.694079252E0,-1.054912567E0,-3.352073193E0,-1.011550426E-1,3.515603441E0
2.702105231E0,-1.246199608E0,-3.548125744E0,-5.899405479E-2,3.761075651E0
2.710131211E0,-1.432524681E0,-3.721088886E0,-1.575279236E-2,3.987339666E0
2.718157190E0,-1.604326248E0,-3.872792959E0,6.703257561E-3,4.191948586E0
2.726213687E0,-1.806959629E0,-4.038429260E0,-6.497490406E-2,4.424730018E0
2.734239667E0,-1.936475754E0,-3.430127621E0,-1.454752684E-1,3.941684525E0
2.742265646E0,-1.958969116E0,-2.668688297E0,-2.253957987E-1,3.318171257E0
2.750291626E0,-1.896465778E0,-1.978358746E0,-3.008417487E-1,2.756989578E0
2.758348123E0,-1.828077793E0,-1.406939983E0,-3.682342172E-1,2.336010482E0
2.766374103E0,-1.979503632E0,-1.517657995E0,-4.930542111E-1,2.542601595E0
2.774400082E0,-2.108783245E0,-1.640702963E0,-6.091238856E-1,2.740420569E0
2.782426062E0,-2.252547264E0,-1.774606466E0,-6.858084202E-1,2.948479350E0
2.790452041E0,-2.417891502E0,-1.922652483E0,-7.170464993E-1,3.171269079E0
2.798508537E0,-2.528428078E0,-2.027343988E0,-7.504864335E-1,3.326605188E0
2.806534517E0,-2.608093262E0,-2.109821320E0,-7.221919298E-1,3.431480387E0
2.814560498E0,-2.666343689E0,-2.187314272E0,-6.596388817E-1,3.511247050E0
2.822586477E0,-2.642820835E0,-2.287933588E0,-6.060919166E-1,3.547744281E0
2.830642973E0,-2.554132462E0,-2.366965771E0,-5.572242141E-1,3.526559005E0
2.838668953E0,-2.441142082E0,-2.433973312E0,-4.970481396E-1,3.482880647E0
2.846694932E0,-2.330370426E0,-2.456766129E0,-4.330290556E-1,3.413772151E0
2.854720912E0,-2.185574532E0,-2.422377110E0,-3.750017285E-1,3.284093968E0
2.862746891E0,-1.908734322E0,-2.381921768E0,-3.414344192E-1,3.071383317E0
2.870803389E0,-1.545733452E0,-2.389220715E0,-3.319335580E-1,2.864934103E0
2.878829368E0,-1.166544914E0,-2.522051334E0,-3.753396273E-1,2.804006028E0
2.886855348E0,-6.516180038E-1,-2.816206694E0,-4.533329606E-1,2.925942060E0
2.894881327E0,-1.519536972E-1,-3.245240688E0,-5.662830472E-1,3.297780093E0
2.902907307E0,3.085680008E-1,-3.670019150E0,-6.873503923E-1,3.746559132E0
2.910933286E0,6.695270538E-1,-4.026666164E0,-7.399632335E-1,4.148475920E0
2.918989783E0,7.669315338E-1,-4.127696991E0,-7.346265316E-1,4.262128877E0
2.927015763E0,6.945848465E-1,-4.084433556E0,-6.131950617E-1,4.188204121E0
2.935041743E0,5.420684814E-1,-3.902091265E0,-4.217091501E-1,3.962069293E0
2.943067722E0,2.744121552E-1,-3.574391365E0,-1.965776086E-1,3.590295032E0
2.951124219E0,2.668380737E-2,-3.119189978E0,1.837790012E-2,3.119358250E0
2.959180715E0,-2.121553421E-1,-2.598160028E0,1.865548491E-1,2.613474342E0
2.967206695E0,-5.017223358E-1,-1.904469013E0,3.562749028E-1,2.001414333E0
2.975232674E0,-7.630186081E-1,-1.109978914E0,4.278080463E-1,1.413248142E0
2.983258654E0,-9.523296356E-1,-3.625640869E-1,4.587455988E-1,1.117511511E0
2.991284634E0,-9.745550156E-1,2.738339901E-1,4.651186466E-1,1.114036753E0
2.999310614E0,-9.023017883E-1,7.165646553E-1,4.289180636E-1,1.229464976E0
3.007367110E0,-7.486591339E-1,1.098588467E0,3.298305273E-1,1.369735483E0
3.015393090E0,-6.137304306E-1,1.278727770E0,2.526665926E-1,1.440711684E0
3.023419069E0,-4.431123734E-1,1.337185621E0,1.841542125E-1,1.420678266E0
3.031445049E0,-2.689113617E-1,1.305534959E0,7.742577791E-2,1.335188975E0
3.039471028E0,-1.797571182E-1,1.254183054E0,2.472877502E-2,1.267240809E0
3.047527525E0,-1.778411865E-1,1.088819981E0,-5.663377047E-2,1.104700784E0
3.055553505E0,-1.624336243E-1,9.157719612E-1,-1.188794971E-1,9.376328184E-1
3.063579485E0,-9.227180481E-2,7.179715633E-1,-2.087193131E-1,7.533664470E-1
3.071605464E0,7.572555542E-2,5.725388527E-1,-2.888023257E-1,6.457103692E-1
3.079631444E0,3.636054993E-1,5.890123844E-1,-3.237684369E-1,7.641796574E-1
3.087657423E0,6.321840286E-1,7.045786381E-1,-4.329165220E-1,1.040915183E0
3.095713920E0,8.181486130E-1,8.882853985E-1,-5.102417469E-1,1.311016683E0
3.103739900E0,8.441171646E-1,9.898860455E-1,-6.101888418E-1,1.436919828E0
3.111765880E0,7.511100769E-1,9.929165840E-1,-6.979898810E-1,1.427319013E0
3.119791859E0,5.429744720E-1,9.677202702E-1,-7.685039639E-1,1.349778553E0
3.127817839E0,2.484378815E-1,8.958647251E-1,-8.395666480E-1,1.252664018E0
3.135874336E0,-1.110181808E-1,8.376677036E-1,-8.688306808E-1,1.211973172E0
3.143900315E0,-4.970054626E-1,8.152570724E-1,-8.496987820E-1,1.278141833E0
3.151926295E0,-8.829913139E-1,7.571592331E-1,-7.892913222E-1,1.405682950E0
3.159952274E0,-1.101707935E0,6.720857620E-1,-7.427312136E-1,1.488996072E0
3.167978254E0,-1.338554859E0,5.912597179E-1,-6.491230726E-1,1.600836634E0
3.176034750E0,-1.503598213E0,5.675981045E-1,-5.632967353E-1,1.703020378E0
3.184060730E0,-1.612871170E0,6.119673252E-1,-4.266434014E-1,1.777043052E0
3.192086710E0,-1.618808270E0,7.018678188E-1,-3.000034094E-1,1.789737605E0
3.200112690E0,-1.518455505E0,8.356626034E-1,-1.265304387E-1,1.737828835E0
3.208138669E0,-1.329866409E0,1.017398834E0,8.944600821E-2,1.676796244E0
3.216164649E0,-1.061852932E0,1.200058460E0,2.931625545E-1,1.628992400E0
3.224221145E0,-7.190103531E-1,1.409663200E0,4.564937651E-1,1.646970790E0
3.232247125E0,-3.525905609E-1,1.590941668E0,6.546614170E-1,1.756131278E0
3.240273104E0,-2.956008911E-2,1.695512056E0,8.318151236E-1,1.888796265E0
3.248299084E0,2.778711319E-1,1.816981554E0,9.795958996E-1,2.082844800E0
3.256325063E0,5.643920898E-1,1.956467390E0,1.131871581E0,2.329685892E0
3.264381560E0,8.440999985E-1,2.041495562E0,1.219968200E0,2.523594925E0
3.272407540E0,1.104244232E0,2.118636370E0,1.218006849E0,2.681700221E0
3.280433520E0,1.338644028E0,2.246898890E0,1.227316856E0,2.889087939E0
3.288459499E0,1.611952782E0,2.474097967E0,1.120375037E0,3.158289528E0
3.296485479E0,1.866430283E0,2.696747780E0,1.077417374E0,3.452077459E0
3.304541976E0,2.161441803E0,2.954769611E0,1.063862562E0,3.812387398E0
3.312567955E0,2.522650719E0,3.184933424E0,1.095439076E0,4.208034498E0
3.320593935E0,2.826863766E0,3.343342066E0,1.147515535E0,4.526133761E0
3.328619914E0,3.231261253E0,3.474242449E0,1.215143561E0,4.897752929E0
3.336645894E0,3.660191059E0,3.640465975E0,1.314839363E0,5.327175016E0
3.344702391E0,4.053605080E0,3.860991478E0,1.417522907E0,5.774802207E0
3.352728371E0,4.433236122E0,3.970726967E0,1.503606796E0,6.138492368E0
3.360754350E0,4.746146679E0,4.000666618E0,1.633619785E0,6.418719132E0
3.368780330E0,4.980625629E0,3.922946215E0,1.715755939E0,6.568101484E0
3.376806309E0,5.194717884E0,3.839226246E0,1.776803970E0,6.699386868E0
3.384832289E0,5.372258186E0,3.803398132E0,1.792326212E0,6.821981283E0
3.392888786E0,5.522242546E0,3.774721861E0,1.799625397E0,6.926928571E0
3.400914766E0,5.617281914E0,3.778766394E0,1.783718586E0,7.001041605E0
3.408940745E0,5.763527393E0,3.696683645E0,1.775822520E0,7.073702256E0
3.416966725E0,5.908329010E0,3.588363171E0,1.792292118E0,7.141219292E0
3.424992704E0,6.027650833E0,3.515901089E0,1.856765747E0,7.220921968E0
3.433049200E0,6.157415390E0,3.412370920E0,1.959823370E0,7.307458329E0
3.441075180E0,6.302771091E0,3.299773216E0,2.098967552E0,7.417485524E0
3.449101159E0,6.481301785E0,3.224612236E0,2.279899359E0,7.589686290E0
3.457127140E0,6.664043903E0,3.105469227E0,2.465626240E0,7.754529839E0
3.465153120E0,6.731264591E0,2.966558933E0,2.630502224E0,7.812165951E0
3.473179099E0,6.613981724E0,2.901959419E0,2.794668198E0,7.744436264E0
3.481235595E0,6.398697376E0,2.948184967E0,2.968444347E0,7.645049677E0
3.489261575E0,6.011632442E0,3.177703857E0,3.129323959E0,7.485331981E0
3.497287554E0,5.493811131E0,3.612928629E0,3.317116976E0,7.364677797E0
3.505313534E0,4.867599487E0,4.214346886E0,3.411875486E0,7.286641118E0
3.513339514E0,4.226250648E0,4.876836777E0,3.459484577E0,7.322073820E0
3.521365493E0,3.713877678E0,5.452347755E0,3.431004524E0,7.435911208E0
3.529421990E0,3.227302074E0,6.050400734E0,3.294944763E0,7.607857038E0
3.537447970E0,2.909661293E0,6.526749611E0,3.072700262E0,7.778565178E0
3.545473949E0,2.629121304E0,6.873439789E0,2.753362894E0,7.857318918E0
3.553499929E0,2.612434387E0,6.998203754E0,2.396422863E0,7.844903553E0
3.561525908E0,2.689806461E0,6.935082912E0,2.063191652E0,7.719274163E0
3.569582406E0,2.785761833E0,6.615762234E0,1.699779153E0,7.376857603E0
3.577608385E0,2.974381924E0,6.270466805E0,1.367097974E0,7.073518124E0
3.585634365E0,3.116522789E0,5.877011776E0,1.131238699E0,6.747716851E0
3.593660344E0,3.196395874E0,5.452608585E0,9.895768166E-1,6.397433020E0
3.601686324E0,3.220331669E0,5.120588303E0,9.006584883E-1,6.115729420E0
3.609712303E0,3.419622898E0,4.807740211E0,8.975251913E-1,5.967724707E0
3.617768800E0,3.619390011E0,4.468173027E0,9.383797646E-1,5.826243286E0
3.625794780E0,3.764298916E0,4.204474926E0,1.017561197E0,5.734368886E0
3.633820760E0,3.836830139E0,4.066180229E0,1.174475193E0,5.712659552E0
3.641846739E0,3.911102772E0,4.017528534E0,1.288338900E0,5.753005956E0
3.649872719E0,4.003396988E0,4.017507553E0,1.376354456E0,5.836257874E0
3.657898698E0,4.025669098E0,4.074076176E0,1.438351154E0,5.905333387E0
3.665955195E0,3.962729454E0,4.121884346E0,1.404755473E0,5.887825849E0
3.673981175E0,3.904247284E0,4.149888039E0,1.332637429E0,5.851550231E0
3.682007155E0,3.814981461E0,4.091529369E0,1.252439022E0,5.732652059E0
3.690033134E0,3.377158165E0,4.093193054E0,1.232271552E0,5.447744472E0
3.698059114E0,3.716008663E0,3.800203085E0,9.873574376E-1,5.406027986E0
3.706085093E0,3.482515812E0,3.476908684E0,9.828799963E-1,5.018253029E0
3.714141590E0,3.309901237E0,3.222359657E0,9.373369813E-1,4.713560075E0
3.722167570E0,3.190993786E0,3.077020407E0,8.911983371E-1,4.521584943E0
3.730193549E0,2.974057674E0,2.956017733E0,9.285697341E-1,4.294799371E0
3.738219529E0,2.858113289E0,2.854655504E0,9.846130610E-1,4.157803807E0
3.746245509E0,2.715157032E0,2.731082201E0,1.102459788E0,4.005783978E0
3.754271488E0,2.528333187E0,2.553910017E0,1.203354120E0,3.789853060E0
3.762327984E0,2.407495022E0,2.415984392E0,1.306579471E0,3.652418757E0
3.770353964E0,2.305220127E0,2.241046429E0,1.440941215E0,3.523157747E0
3.778379943E0,2.222998619E0,2.044474125E0,1.572919846E0,3.405242157E0
3.786405924E0,2.126643658E0,1.801109314E0,1.668278098E0,3.248039381E0
3.794431904E0,2.026947975E0,1.579200745E0,1.771703959E0,3.121110059E0
3.802488400E0,1.897279739E0,1.332489014E0,1.858796000E0,2.971585427E0
3.810514379E0,1.705010414E0,1.081010818E0,1.938013315E0,2.798488969E0
3.818540359E0,1.459863663E0,7.983002663E-1,1.988662243E0,2.592925519E0
3.826566338E0,1.138427734E0,6.069421768E-1,2.026017189E0,2.401903862E0
3.834592318E0,8.259086609E-1,4.203290939E-1,1.982104421E0,2.188044697E0
3.842648815E0,5.421838760E-1,2.659044266E-1,1.909330845E0,2.002551571E0
3.850674794E0,2.831544876E-1,1.329026222E-1,1.779626012E0,1.806905729E0
3.858700774E0,5.890750885E-2,-8.741378784E-3,1.616177320E0,1.617274138E0
3.866726754E0,-1.397790909E-1,-1.892657280E-1,1.470381737E0,1.489087694E0
3.874752733E0,-3.002262115E-1,-3.757882118E-1,1.329447150E0,1.413782969E0
3.882778713E0,-4.203062057E-1,-5.659227371E-1,1.199344158E0,1.391169386E0
3.890804692E0,-5.314407349E-1,-7.860765457E-1,1.047775388E0,1.413569543E0
3.898861189E0,-5.736188889E-1,-9.802904129E-1,9.112748504E-1,1.456169556E0
3.906887169E0,-5.327014923E-1,-1.248985052E0,8.003525734E-1,1.576165849E0
3.914913149E0,-4.418601990E-1,-1.470915318E0,7.091857791E-1,1.691678686E0
3.922939128E0,-3.999557495E-1,-1.678157568E0,6.782143116E-1,1.853686078E0
3.930965108E0,-3.974323273E-1,-1.894084692E0,6.950392127E-1,2.056353273E0
3.938991087E0,-4.340629578E-1,-1.997771502E0,6.867682338E-1,2.156653016E0
3.947047584E0,-5.386009216E-1,-1.947968960E0,6.781079769E-1,2.131784335E0
3.955073564E0,-5.958557129E-1,-1.860556841E0,6.276712418E-1,2.051995852E0
3.963099543E0,-5.945949554E-1,-1.818302631E0,5.548744202E-1,1.991896896E0
3.971125523E0,-4.975700378E-1,-1.866690397E0,3.964239061E-1,1.972120913E0
3.979151503E0,-2.522649765E-1,-2.027097702E0,2.004126608E-1,2.052541826E0
3.987177482E0,1.447458267E-1,-2.396310329E0,-5.367723107E-2,2.401277950E0
3.995203462E0,5.922632217E-1,-2.875348091E0,-3.083101809E-1,2.951856625E0
4.003259959E0,8.836936951E-1,-3.267662048E0,-4.815238714E-1,3.419121970E0
4.011285938E0,9.889011383E-1,-3.668757200E0,-6.344254017E-1,3.852298073E0
4.019311918E0,8.963041306E-1,-3.890892982E0,-7.053928375E-1,4.054625550E0
4.027337898E0,5.561151505E-1,-3.913460255E0,-6.689975858E-1,4.008989024E0
4.035363877E0,5.632476807E-1,-4.012559891E0,-8.543535471E-1,4.140990801E0
4.043389857E0,2.723388672E-1,-3.982444286E0,-9.079536200E-1,4.093703791E0
4.051415836E0,-7.957077026E-2,-3.669411182E0,-1.004150152E0,3.805158007E0
4.059472333E0,-6.637010574E-1,-3.085830688E0,-1.141273141E0,3.356390102E0
4.067498313E0,-1.197331429E0,-2.360301018E0,-1.246332288E0,2.925400420E0
4.075524292E0,-1.666496754E0,-1.540071726E0,-1.313896537E0,2.622090094E0
4.083550272E0,-2.086112976E0,-8.286175728E-1,-1.349071860E0,2.618867945E0
4.091576252E0,-2.478996754E0,-5.841875076E-2,-1.343949676E0,2.820467760E0
4.099602231E0,-2.692618847E0,5.140466690E-1,-1.326689363E0,3.045413748E0
4.107628211E0,-2.495730400E0,1.036337495E0,-1.312498331E0,3.004216620E0
4.115684707E0,-2.413674831E0,1.070133567E0,-1.140616179E0,2.876111491E0
4.123710687E0,-2.420427322E0,9.179787636E-1,-9.163135290E-1,2.746048783E0
4.131736667E0,-2.235086441E0,6.257510185E-1,-6.867033243E-1,2.420482843E0
4.139762647E0,-1.871852875E0,2.683887482E-1,-6.105313897E-1,1.987112046E0
4.147788626E0,-1.593489170E0,-8.972930908E-2,-5.598450899E-1,1.691356145E0
4.155814606E0,-1.444799900E0,-3.387377262E-1,-5.059347153E-1,1.567852013E0
4.163840585E0,-1.604634285E0,-5.316655636E-1,-3.873521388E-1,1.734232147E0
4.171897081E0,-1.810786247E0,-7.703335285E-1,-3.645622134E-1,2.001316113E0
4.179923061E0,-1.899642467E0,-8.496465683E-1,-3.820253909E-1,2.115770355E0
4.187949040E0,-1.935639858E0,-7.668879032E-1,-3.470353484E-1,2.110746846E0
4.195975021E0,-1.904714584E0,-5.782296658E-1,-2.588753998E-1,2.007312548E0
4.204001001E0,-1.857138157E0,-3.916168213E-1,-1.457008570E-1,1.903563660E0
4.212026980E0,-1.774537086E0,-2.333519459E-1,-1.000911966E-1,1.792610736E0
4.220052960E0,-1.599569798E0,-1.111118793E-1,-1.343926936E-1,1.609046545E0
4.228078939E0,-1.480947971E0,-1.095013618E-1,-2.116401792E-1,1.499996336E0
4.236135435E0,-1.400037766E0,-1.221811771E-1,-3.699342608E-1,1.453232721E0
4.244161415E0,-1.316016197E0,-1.033697128E-1,-4.842632413E-1,1.406092037E0
4.252187395E0,-1.279152870E0,-6.028532982E-2,-6.148757935E-1,1.420541667E0
4.260213374E0,-1.251008034E0,1.078996658E-1,-7.285130620E-1,1.451686853E0
4.268239355E0,-1.317587852E0,3.752119541E-1,-7.967828512E-1,1.584829540E0
4.276265334E0,-1.464476109E0,6.196076870E-1,-8.049592376E-1,1.782291596E0
4.284321830E0,-1.578103065E0,8.313500881E-1,-7.664853334E-1,1.941404651E0
4.292347810E0,-1.605625153E0,1.017753839E0,-7.311351895E-1,2.036765493E0
4.300373789E0,-1.507727146E0,1.137590885E0,-6.046700478E-1,1.983174232E0
4.308399769E0,-1.262107849E0,1.254248142E0,-4.227513671E-1,1.828872151E0
4.316425749E0,-9.280819893E-1,1.377836704E0,-2.296530902E-1,1.677054175E0
4.324451728E0,-5.745096207E-1,1.508885860E0,-8.611965925E-2,1.616853252E0
4.332508225E0,-1.066246033E-1,1.647222519E0,7.898235321E-2,1.652558333E0
4.340534205E0,3.869581223E-1,1.794744492E0,1.515945792E-1,1.842233779E0
4.348560184E0,7.785425186E-1,1.973558426E0,2.001934946E-1,2.130994779E0
4.356586164E0,1.085124969E0,2.198851347E0,2.527040243E-1,2.465015775E0
4.364612144E0,1.295947075E0,2.401715040E0,2.536789775E-1,2.740815021E0
4.372668641E0,1.527151108E0,2.594798088E0,2.902221382E-1,3.024796938E0
4.380694620E0,1.646610260E0,2.828033447E0,3.506979346E-1,3.291213692E0
4.388720600E0,1.728661537E0,3.044458628E0,4.194517434E-1,3.526037267E0
4.396746579E0,1.770011902E0,3.223831892E0,4.446496069E-1,3.704557662E0
4.404772559E0,1.852022171E0,3.337715387E0,4.911892414E-1,3.848583765E0
4.412798538E0,1.948425293E0,3.441561937E0,5.433449745E-1,3.991983649E0
4.420855036E0,2.132761955E0,3.497321367E0,5.878379345E-1,4.138294787E0
4.428881015E0,2.381945610E0,3.503898382E0,6.799407005E-1,4.291070743E0
4.436906995E0,2.683842182E0,3.494632006E0,7.856944799E-1,4.475799094E0
4.444932974E0,2.952597618E0,3.446146488E0,8.965598345E-1,4.625751598E0
4.452958954E0,3.193680763E0,3.400151730E0,1.039528966E0,4.779251937E0
4.460984933E0,3.529566765E0,3.457713127E0,1.215921283E0,5.088426690E0
4.469041430E0,3.792900562E0,3.604705811E0,1.363812923E0,5.407400886E0
4.477067410E0,4.043394089E0,3.720611572E0,1.523751616E0,5.702087795E0
4.485093390E0,4.326474667E0,3.843810558E0,1.587339044E0,6.001075561E0
4.493119369E0,4.793968201E0,3.891300201E0,1.657956123E0,6.393212563E0
4.501145349E0,5.353631496E0,3.787565231E0,1.639556766E0,6.759820040E0
4.509201845E0,5.846050739E0,3.545552731E0,1.578081369E0,7.016950493E0
4.517227824E0,6.255101204E0,3.249684572E0,1.519244671E0,7.210745125E0
4.525253804E0,6.465065002E0,2.942468643E0,1.493580341E0,7.258510139E0
4.533279785E0,6.455096245E0,2.653636932E0,1.441787481E0,7.126626666E0
4.541305764E0,6.353485584E0,2.528279305E0,1.402252555E0,6.980350101E0
4.549331744E0,6.121192455E0,2.592262268E0,1.483838320E0,6.811064300E0
4.557357723E0,5.896236897E0,2.677330494E0,1.584906340E0,6.666756049E0
4.565414219E0,5.781111717E0,2.759341955E0,1.631205320E0,6.610298897E0
4.573440199E0,5.770267010E0,2.899961710E0,1.675855041E0,6.671899984E0
4.581466178E0,5.716147423E0,3.169608593E0,1.685591698E0,6.749961434E0
4.589492158E0,5.611483097E0,3.575409412E0,1.635339499E0,6.851761109E0
4.597518138E0,5.407639027E0,3.944253683E0,1.569609404E0,6.874836045E0
4.605574635E0,5.153385639E0,4.473274231E0,1.414727688E0,6.969147747E0
4.613600614E0,4.716282368E0,5.032280445E0,1.253266692E0,7.009839032E0
4.621626594E0,4.254711151E0,5.520709038E0,1.016491771E0,7.043724212E0
4.629652573E0,3.769708157E0,5.802660942E0,7.784513831E-1,6.963300952E0
4.637678553E0,3.367506027E0,5.859340191E0,5.174652338E-1,6.777885702E0
4.645735050E0,3.062001228E0,5.706677437E0,2.733758986E-1,6.482033113E0
4.653761030E0,2.825369358E0,5.362278938E0,3.616962582E-2,6.061192594E0
4.661787009E0,2.628010750E0,4.836937904E0,-9.850801528E-2,5.505643706E0
4.669812989E0,2.658228874E0,4.192073822E0,-1.775485277E-1,4.967009881E0
4.677838968E0,2.581445217E0,3.629709721E0,-1.030675843E-1,4.455252517E0
4.685895465E0,2.568497658E0,3.073917866E0,1.399958134E-2,4.005789217E0
4.693921445E0,2.566772938E0,2.575316429E0,1.837514788E-1,3.640651402E0
4.701947424E0,2.574545383E0,2.211230040E0,3.981581926E-1,3.417067773E0
4.709973404E0,2.612791538E0,1.976773739E0,6.068480015E-1,3.332053201E0
4.718029901E0,2.582163334E0,1.883200169E0,7.333616018E-1,3.278998261E0
4.726055881E0,2.530430794E0,1.822760582E0,7.992492318E-1,3.219368801E0
4.734081860E0,2.493515015E0,1.836323500E0,8.416668177E-1,3.209065932E0
4.742107840E0,2.403599739E0,1.894161940E0,8.230386972E-1,3.168995717E0
4.750133819E0,2.341072083E0,1.961383820E0,7.235863805E-1,3.138665677E0
4.758190315E0,2.251947403E0,1.952258587E0,5.990180373E-1,3.039967649E0
4.766216295E0,2.081789017E0,1.904648304E0,5.202502012E-1,2.869179490E0
4.774242275E0,1.974225998E0,1.791892529E0,4.210007191E-1,2.699201499E0
4.782268254E0,1.819357872E0,1.678695202E0,3.400216401E-1,2.498738754E0
4.790294235E0,1.609960556E0,1.559835434E0,2.632242441E-1,2.257065922E0
4.798350731E0,1.345191956E0,1.420806885E0,2.783341408E-1,1.976285277E0
4.806376710E0,1.106318474E0,1.294631481E0,3.198451102E-1,1.732718134E0
4.814402690E0,8.796577454E-1,1.153541088E0,3.662497401E-1,1.496193057E0
4.822428669E0,6.970319748E-1,9.651553631E-1,4.201788902E-1,1.262508910E0
4.830485167E0,4.695806503E-1,7.336099148E-1,4.885287881E-1,9.986740564E-1
4.838511146E0,2.560625076E-1,5.187914371E-1,5.317974687E-1,7.858251146E-1
4.846537126E0,5.847263336E-2,3.414468765E-1,5.779711604E-1,6.738365385E-1
4.854563105E0,-6.794929504E-2,1.852297783E-1,5.801397562E-1,6.127718288E-1
4.862589085E0,-2.620792389E-1,-6.661272049E-2,4.320259988E-1,5.096756279E-1
4.870615064E0,-4.380788803E-1,-2.627296448E-1,3.171229959E-1,6.012544936E-1
4.878671561E0,-6.544342041E-1,-3.845636845E-1,1.979325414E-1,7.844428888E-1
4.886697541E0,-8.324861526E-1,-5.715293884E-1,8.165243268E-2,1.013087437E0
4.894723521E0,-1.003291130E0,-7.225232124E-1,2.190729976E-2,1.236573012E0
4.902749500E0,-1.228802204E0,-8.338418007E-1,-1.354455948E-2,1.485069177E0
4.910775480E0,-1.502344131E0,-9.351465702E-1,-5.523028970E-2,1.770476597E0
4.918801459E0,-1.676355839E0,-7.365448475E-1,-6.841009855E-2,1.832306512E0
4.926827439E0,-1.846966743E0,-5.901706219E-1,-5.574703217E-2,1.939766802E0
4.934853418E0,-2.075056553E0,-4.774105549E-1,9.742230177E-3,2.129289893E0
4.942909916E0,-2.276759624E0,-5.055983067E-1,7.453939319E-2,2.333413842E0
4.950935895E0,-2.463090897E0,-5.270779133E-1,1.067757905E-1,2.521116610E0
4.958961875E0,-2.604876041E0,-5.592341423E-1,1.634761691E-1,2.669240805E0
4.966987854E0,-2.675917149E0,-6.233727932E-1,1.702122092E-1,2.752834616E0
4.975013834E0,-2.645577908E0,-6.699428558E-1,1.420890689E-1,2.732781586E0
4.983039813E0,-2.554683685E0,-7.536981106E-1,4.982113838E-2,2.664010458E0
4.991065793E0,-2.470419407E0,-8.171958923E-1,-4.651451111E-2,2.602488189E0
4.999122290E0,-2.366763592E0,-9.065337181E-1,-1.539075375E-1,2.539106302E0
5.007148270E0,-2.248878479E0,-1.012950897E0,-2.230208218E-1,2.476542392E0
5.015174249E0,-2.090841293E0,-1.108888149E0,-2.703758478E-1,2.382090120E0
5.023200229E0,-1.928542137E0,-1.153466463E0,-2.439338416E-1,2.260367973E0
5.031226208E0,-1.774042130E0,-1.194998264E0,-1.606213599E-1,2.145004790E0
5.039252188E0,-1.596110344E0,-1.216702938E0,-7.910978049E-2,2.008529967E0
5.047308684E0,-1.406672001E0,-1.221098661E0,2.764613181E-2,1.862947226E0
5.055334665E0,-1.203434944E0,-1.268594980E0,1.335813850E-1,1.753691214E0
5.063360644E0,-9.597167969E-1,-1.319924116E0,2.351373881E-1,1.648801260E0
5.071386624E0,-6.271896362E-1,-1.438445091E0,2.924754620E-1,1.596255937E0
5.079412603E0,-1.769437790E-1,-1.614055395E0,2.824099958E-1,1.648101734E0
5.087438583E0,3.000946045E-1,-1.925782681E0,2.635100782E-1,1.966757043E0
5.095495079E0,7.772493362E-1,-2.288694859E0,2.031663656E-1,2.425596269E0
5.103521058E0,1.133263588E0,-2.652629614E0,1.391296536E-1,2.887920928E0
5.111547038E0,1.388056755E0,-2.953100681E0,1.404114962E-1,3.266071123E0
5.119573018E0,1.584484100E0,-3.162142515E0,2.172369957E-1,3.543575463E0
5.127598998E0,1.716515541E0,-3.338637829E0,3.872960210E-1,3.773980175E0
5.135624978E0,1.739878654E0,-3.344951391E0,6.366659403E-1,3.823770529E0
5.143650957E0,1.528749466E0,-3.077439070E0,8.820756674E-1,3.547641983E0
5.151707453E0,1.158095360E0,-2.586709976E0,1.160395861E0,3.062478068E0
5.159733433E0,7.859306335E-1,-2.023403168E0,1.390240312E0,2.577715163E0
5.167759413E0,5.134048462E-1,-1.206430197E0,1.541469574E0,2.023656790E0
5.175785392E0,2.104692459E-1,-2.864010334E-1,1.632780075E0,1.671015748E0
5.183811372E0,-1.013469696E-2,5.914371014E-1,1.605955839E0,1.711430605E0
5.191837351E0,-7.972431183E-2,1.341425657E0,1.469029188E0,1.990935839E0
5.199893848E0,-2.489089966E-4,1.857935190E0,1.287546873E0,2.260464595E0
5.207919828E0,1.409740448E-1,2.230833530E0,1.063891172E0,2.475551726E0
5.215945807E0,2.374038696E-1,2.313832998E0,8.874497414E-1,2.489528225E0
5.223971787E0,2.966318130E-1,2.238399982E0,7.346335649E-1,2.374470760E0
5.231997767E0,2.581195831E-1,2.060890436E0,6.105144024E-1,2.164860953E0
5.240023746E0,1.749668121E-1,1.880465746E0,6.093260646E-1,1.984450317E0
5.248049726E0,5.892467499E-2,1.635132551E0,6.732283235E-1,1.769284305E0
5.256075705E0,-4.252815247E-2,1.407938480E0,7.655869126E-1,1.603191420E0
5.264101685E0,-1.099214554E-1,1.163545370E0,8.904728889E-1,1.469306816E0
5.272158182E0,-5.289936066E-2,9.343290329E-1,1.095216393E0,1.440579062E0
5.280184162E0,-1.906967163E-2,7.556529045E-1,1.294164181E0,1.498744772E0
5.288210141E0,1.882171631E-1,7.194402218E-1,1.508404255E0,1.681756026E0
5.296236121E0,3.421306610E-1,8.532638550E-1,1.695971012E0,1.929100897E0
5.304262100E0,4.795951843E-1,1.020818710E0,1.793114424E0,2.118334656E0
5.312288080E0,6.278953552E-1,1.167147398E0,1.748586774E0,2.194092371E0
5.320314059E0,6.605796814E-1,1.207473516E0,1.606035233E0,2.115113939E0
5.328370556E0,5.939712524E-1,1.217287064E0,1.333959699E0,1.901062367E0
5.336396536E0,3.576841354E-1,1.237899303E0,1.050277710E0,1.662352518E0
5.344422516E0,8.399200439E-2,1.248340130E0,8.132658005E-1,1.492249644E0
5.352448495E0,-1.921682358E-1,1.391959906E0,6.162632108E-1,1.534360243E0
5.360474475E0,-4.192495346E-1,1.546291113E0,5.324742794E-1,1.688287664E0
5.368500454E0,-6.799755096E-1,1.710755348E0,4.615431428E-1,1.897912703E0
5.376526434E0,-8.462100029E-1,1.884811878E0,5.145471096E-1,2.129165544E0
5.384552413E0,-8.860425949E-1,2.031149626E0,6.800848246E-1,2.318006827E0
5.392608911E0,-7.703895569E-1,2.193050623E0,9.394208193E-1,2.507086472E0
5.400634890E0,-5.620822906E-1,2.364604235E0,1.224268317E0,2.721419225E0
5.408660870E0,-2.689228058E-1,2.590320587E0,1.506561995E0,3.008622486E0
5.416686849E0,5.812263489E-2,2.828488588E0,1.736664772E0,3.319597937E0
5.424712829E0,2.949466705E-1,3.028404951E0,1.900220394E0,3.587348273E0
5.432738808E0,5.048685074E-1,3.174198151E0,1.987777233E0,3.779111594E0
5.440764788E0,6.752386093E-1,3.265243530E0,2.024505615E0,3.900818565E0
5.448790768E0,7.773294449E-1,3.279942989E0,1.956370234E0,3.897390354E0
5.456816747E0,9.165496826E-1,3.383710384E0,1.852936745E0,3.965215488E0
5.464873244E0,9.981250763E-1,3.520395756E0,1.775206566E0,4.067038025E0
5.472899224E0,9.841384888E-1,3.692675114E0,1.667059422E0,4.169348291E0
5.480925203E0,9.914932251E-1,3.818561316E0,1.602767825E0,4.258325262E0
5.488951183E0,1.044649124E0,3.908083200E0,1.545317411E0,4.330405523E0
5.496977162E0,1.095632553E0,3.989572763E0,1.543755054E0,4.415912272E0
5.505003142E0,1.152123451E0,4.094606400E0,1.618184566E0,4.551012119E0
5.513059639E0,1.338754654E0,4.199481487E0,1.737157106E0,4.737681247E0
5.521085619E0,1.565914631E0,4.317571163E0,1.868006229E0,4.958120274E0
5.529111598E0,1.874104977E0,4.374843597E0,1.994719505E0,5.160468183E0
5.537137578E0,2.257057667E0,4.446433067E0,2.015281200E0,5.378330099E0
5.545163557E0,2.658111095E0,4.437388897E0,1.976340413E0,5.537318507E0
5.553189537E0,2.999462605E0,4.427917004E0,1.863108635E0,5.663426409E0
5.561246034E0,3.223765373E0,4.384770393E0,1.757221222E0,5.718977269E0
5.569272014E0,3.497280121E0,4.297267437E0,1.640007615E0,5.778157202E0
5.577297993E0,3.754671097E0,4.267327785E0,1.521984458E0,5.884222817E0
5.585323973E0,4.114114285E0,4.154272556E0,1.426845431E0,6.018289184E0
5.593349952E0,4.576526642E0,3.929959536E0,1.340154409E0,6.179416793E0
5.601406448E0,5.096692562E0,3.589392424E0,1.346236348E0,6.377488953E0
5.609432429E0,5.784822464E0,3.092169523E0,1.406197190E0,6.708433039E0
5.617458409E0,6.336088181E0,2.597902536E0,1.510282397E0,7.012564719E0
5.625484388E0,6.767251968E0,2.234093189E0,1.646565437E0,7.314236072E0
5.633510368E0,7.170934200E0,2.057899475E0,1.812867880E0,7.677482498E0
5.641566864E0,7.419418335E0,1.977704525E0,1.917143583E0,7.914197567E0
5.649592843E0,7.548899174E0,1.914700985E0,2.065434456E0,8.057169360E0
5.657618823E0,7.888852596E0,1.956559658E0,2.111176252E0,8.397570253E0
5.665644802E0,7.902633667E0,2.014506340E0,2.221106529E0,8.452406100E0
5.673701299E0,7.622179985E0,2.213387012E0,2.360162735E0,8.280524013E0
5.681727279E0,7.282555580E0,2.585722685E0,2.379000664E0,8.085865553E0
5.689753259E0,6.656762123E0,3.146564245E0,2.410161495E0,7.747401303E0
5.697779238E0,5.947434902E0,3.751635075E0,2.362035990E0,7.417948616E0
5.705835735E0,5.284927368E0,4.349023819E0,2.246688843E0,7.203615496E0
5.713861715E0,4.595464230E0,4.828347206E0,2.045747280E0,6.972539721E0
5.721887694E0,4.105241299E0,5.103383541E0,1.805675864E0,6.793967546E0
5.729913674E0,3.674393654E0,5.291941643E0,1.495738387E0,6.613852765E0
5.737970171E0,3.416626453E0,5.216541290E0,1.163976073E0,6.343538418E0
5.745996151E0,3.296140194E0,4.871086121E0,8.594903946E-1,5.943967018E0
5.754022130E0,3.260338783E0,4.380960941E0,6.035673618E-1,5.494262581E0
5.762048110E0,3.272111893E0,3.801393509E0,4.456325173E-1,5.035463950E0
5.770104606E0,3.318550110E0,3.157600403E0,3.955185413E-1,4.597787517E0
5.778130585E0,3.340003967E0,2.458503723E0,4.805740416E-1,4.175023170E0
5.786156565E0,3.413997650E0,1.750490189E0,6.504203081E-1,3.891354833E0
5.794182546E0,3.498980522E0,1.078523636E0,8.478899002E-1,3.758323457E0
5.802208525E0,3.517854691E0,5.053043365E-1,9.483253956E-1,3.678308735E0
5.810265021E0,3.553329468E0,-1.201758385E-1,1.004385114E0,3.694507003E0
5.818291001E0,3.505639076E0,-6.551957130E-1,1.035931230E0,3.713750162E0
5.826316980E0,3.365322113E0,-1.022393703E0,1.034787297E0,3.666260569E0
5.834342960E0,3.125470161E0,-1.294949532E0,1.005095363E0,3.529259796E0
5.842368939E0,2.820115089E0,-1.462120295E0,8.986340165E-1,3.301270660E0
5.850425436E0,2.398169518E0,-1.499594927E0,7.929723263E-1,2.937483122E0
5.858451416E0,1.984485626E0,-1.521770954E0,6.622124910E-1,2.586985779E0
5.866477396E0,1.655665398E0,-1.505273581E0,5.414847136E-1,2.302234166E0
5.874503375E0,1.426657677E0,-1.480146885E0,4.729571342E-1,2.109472773E0
5.882529355E0,1.139901161E0,-1.502488613E0,4.015706778E-1,1.928239015E0
5.890585852E0,8.544235229E-1,-1.514728785E0,3.406061530E-1,1.772133008E0
5.898611831E0,5.440874100E-1,-1.518870115E0,2.751087546E-1,1.636668068E0
5.906637811E0,2.402343750E-1,-1.574305773E0,2.023345828E-1,1.605331899E0
5.914663791E0,-8.585739136E-2,-1.640727043E0,1.252343953E-1,1.647737957E0
5.922689770E0,-3.830499649E-1,-1.724546909E0,5.268120766E-2,1.767360922E0
5.930715750E0,-7.136240005E-1,-1.772648454E0,-5.182078481E-2,1.911603293E0
5.938772247E0,-1.041409492E0,-1.809319854E0,-1.669149101E-1,2.094285714E0
5.946798226E0,-1.306446075E0,-1.837343454E0,-2.186234742E-1,2.265044931E0
5.954824206E0,-1.450967789E0,-1.861473322E0,-2.277162969E-1,2.371127404E0
5.962850185E0,-1.444430351E0,-1.935652256E0,-1.982803494E-1,2.423312566E0
5.970876165E0,-1.455433846E0,-1.932811618E0,-1.147574186E-1,2.422234030E0
5.978902145E0,-1.477493286E0,-1.958983421E0,-3.117781878E-2,2.453889670E0
5.986958642E0,-1.518520355E0,-2.011868954E0,3.033551574E-2,2.520801658E0
5.994984621E0,-1.533910751E0,-2.094147682E0,1.377934217E-1,2.599485283E0
6.003010601E0,-1.578780174E0,-2.184935570E0,2.160316706E-1,2.704285481E0
6.011036580E0,-1.756025314E0,-2.288144588E0,2.504507303E-1,2.895160813E0
6.019062560E0,-1.919389248E0,-2.398248672E0,1.772018671E-1,3.076857534E0
6.027119056E0,-2.118828773E0,-2.491403818E0,9.376376867E-2,3.271898532E0
6.035145036E0,-2.294283390E0,-2.587383986E0,9.845674038E-3,3.458090383E0
6.043171015E0,-2.428921223E0,-2.627608061E0,1.043081284E-2,3.578280485E0
6.051196995E0,-2.455797672E0,-2.546887398E0,4.517477751E-2,3.538307277E0
6.059222975E0,-2.308265209E0,-2.331225157E0,1.997445822E-1,3.286730428E0
6.067279471E0,-2.048816681E0,-2.162184477E0,3.169785738E-1,2.995524482E0
6.075305451E0,-1.775935650E0,-2.000698805E0,3.487906456E-1,2.697850636E0
6.083331430E0,-1.595349312E0,-1.890588284E0,3.095399141E-1,2.493046017E0
6.091357410E0,-1.356052399E0,-1.835556984E0,3.157522678E-1,2.303876525E0
6.099383390E0,-1.106167793E0,-1.823742270E0,3.449532986E-1,2.160702625E0
6.107409369E0,-9.389295578E-1,-1.897741795E0,3.583424091E-1,2.147422156E0
6.115465866E0,-7.704248428E-1,-1.943076491E0,3.624345064E-1,2.121428637E0
6.123491846E0,-6.916990280E-1,-2.044713259E0,3.903396130E-1,2.193550745E0
6.131517825E0,-6.477861404E-1,-2.096573591E0,5.474128723E-1,2.261616360E0
6.139543805E0,-5.219135284E-1,-2.044229984E0,8.001790047E-1,2.256447739E0
6.147569785E0,-3.547000885E-1,-1.615604520E0,1.195338607E0,2.040790166E0
6.155595764E0,-2.488412857E-1,-1.379016876E0,1.707013726E0,2.208507503E0
6.163621744E0,1.718931198E-1,-1.153989673E0,2.200205326E0,2.490410184E0
6.171678241E0,5.986690521E-1,-8.267786503E-1,2.762861013E0,2.945397859E0
6.179704220E0,8.593368530E-1,-6.905480027E-1,3.112788200E0,3.302236629E0
6.187730200E0,1.102693558E0,-7.856670022E-1,3.025254726E0,3.314418785E0
6.195756179E0,1.250264168E0,-1.104725242E0,2.651648045E0,3.132860626E0
6.203782159E0,1.144221306E0,-1.457631230E0,2.197727442E0,2.874706439E0
6.211808139E0,8.535127640E-1,-1.630081296E0,1.694053650E0,2.501093129E0
6.219864636E0,5.375061035E-1,-1.582017541E0,1.177115917E0,2.043842996E0
6.227890615E0,9.106254578E-2,-1.394561172E0,8.325824738E-1,1.626741167E0
6.235916595E0,-2.750711441E-1,-1.071316719E0,7.431442738E-1,1.332534074E0
6.243942574E0,-4.381875992E-1,-7.755377293E-1,8.004429340E-1,1.197570888E0
6.251968554E0,-4.886255264E-1,-4.463540316E-1,1.001055002E0,1.200040809E0
6.260025051E0,-3.716564178E-1,-4.654884338E-2,1.291653156E0,1.344865482E0
6.268051031E0,-2.369327545E-1,3.811254501E-1,1.723844528E0,1.781301125E0
6.276077010E0,1.831626892E-2,9.390175343E-1,2.257967234E0,2.445507196E0
6.284102990E0,2.289981842E-1,1.404570818E0,2.742639303E0,3.089875353E0
6.292128969E0,4.824943542E-1,1.871638060E0,3.202601194E0,3.740652916E0
6.300154949E0,5.641384125E-1,2.043354034E0,3.496911764E0,4.089246843E0
6.308211445E0,5.692873001E-1,1.951766253E0,3.552560329E0,4.093185120E0
6.316237425E0,4.967317581E-1,1.593339562E0,3.371938467E0,3.762371915E0
6.324263405E0,3.965272903E-1,1.168306589E0,3.048990011E0,3.289150995E0
6.332289385E0,1.959123611E-1,6.179056168E-1,2.526123762E0,2.607966692E0
6.340315364E0,-1.203908920E-1,1.397612095E-1,1.974284172E0,1.982883041E0
6.348371860E0,-6.190195084E-1,-2.553529739E-1,1.431288481E0,1.580182587E0
6.356397840E0,-1.100982189E0,-4.805870056E-1,9.563467503E-1,1.535488443E0
6.364423819E0,-1.534940720E0,-5.385376215E-1,5.959985256E-1,1.732420280E0
6.372449799E0,-1.972512722E0,-4.634001255E-1,3.081493378E-1,2.049512657E0
6.380475779E0,-2.188014507E0,-2.960224152E-1,9.510350227E-2,2.209995799E0
6.388501758E0,-2.230916023E0,-8.719873428E-2,-3.029322624E-2,2.232825027E0
6.396558255E0,-2.084489822E0,-2.468800545E-2,-9.508776665E-2,2.086803537E0
6.404584235E0,-1.792292118E0,-8.258008957E-2,-1.066110134E-1,1.797358177E0
6.412610214E0,-1.451354027E0,-1.649563313E-1,-1.218881607E-1,1.465774821E0
6.420636194E0,-1.242207527E0,-2.704260349E-1,-1.172204018E-1,1.276695110E0
6.428662174E0,-1.262683868E0,-4.223549366E-1,-8.060789108E-2,1.333886006E0
6.436718671E0,-1.412763119E0,-5.420248508E-1,-4.935407639E-2,1.513977012E0
6.444744650E0,-1.574316502E0,-6.310424805E-1,1.740884781E-2,1.696169251E0
6.452770630E0,-1.869015694E0,-6.670646667E-1,1.015501022E-1,1.987085141E0
6.460796609E0,-2.322747231E0,-6.542038918E-1,1.305832863E-1,2.416648386E0
6.468822589E0,-2.668044567E0,-5.259656906E-1,2.508072853E-1,2.730935007E0
6.476879086E0,-2.777153969E0,-2.572505474E-1,4.120335579E-1,2.819314396E0
6.484905065E0,-2.730478764E0,-1.308445930E-1,4.665617943E-1,2.773141629E0
6.492931045E0,-2.608813286E0,-6.521916389E-2,4.651393890E-1,2.650757430E0
6.500957025E0,-2.430492878E0,-1.499400139E-1,5.075211525E-1,2.487439518E0
6.508983004E0,-2.202574730E0,-2.047319412E-1,5.780892372E-1,2.286359065E0
6.517008984E0,-2.100132942E0,-2.078390121E-1,7.006592751E-1,2.223663385E0
6.525065481E0,-2.086059093E0,-1.822140217E-1,8.234443665E-1,2.250090024E0
6.533091460E0,-2.119981766E0,-9.686255455E-2,9.829835892E-1,2.338794941E0
6.541117440E0,-2.119539261E0,6.215476990E-2,1.232323170E0,2.452535482E0
6.549143420E0,-2.099471569E0,1.577341557E-1,1.328185081E0,2.489324516E0
6.557199916E0,-2.039886951E0,1.825678349E-1,1.345821381E0,2.450653990E0
6.565225895E0,-1.993047237E0,1.898934841E-1,1.276861668E0,2.374588921E0
6.573251875E0,-1.897637844E0,1.804215908E-1,1.108724594E0,2.205187421E0
6.581277855E0,-1.745212078E0,1.933748722E-1,8.817796707E-1,1.964864989E0
6.589303835E0,-1.650053024E0,2.232990265E-1,6.369376183E-1,1.782758247E0
6.597360331E0,-1.633402824E0,2.736675739E-1,4.065747261E-1,1.705345049E0
6.605386311E0,-1.678808689E0,3.547916412E-1,2.674317360E-1,1.736604577E0
6.613412290E0,-1.765137196E0,4.765856266E-1,2.009177208E-1,1.839350730E0
6.621438270E0,-1.773128986E0,5.273206234E-1,1.809496880E-1,1.858708216E0
6.629464249E0,-1.691976070E0,5.658252239E-1,1.940555573E-1,1.794602676E0
6.637520746E0,-1.672362328E0,6.173195839E-1,2.504210472E-1,1.800163860E0
6.645546726E0,-1.520977974E0,6.255061626E-1,3.255472183E-1,1.676488279E0
6.653572705E0,-1.325582981E0,6.341292858E-1,5.726981163E-1,1.577109167E0
6.661598685E0,-1.157470226E0,6.398358345E-1,8.050794601E-1,1.548315264E0
6.669624665E0,-1.164966106E0,6.458926201E-1,1.042822361E0,1.691686077E0
6.677650644E0,-1.182520390E0,6.656017303E-1,1.286250114E0,1.869711072E0
6.685676624E0,-1.094459534E0,6.846737862E-1,1.470548153E0,1.956816735E0
6.693733121E0,-6.835989952E-1,5.075428486E-1,1.418321609E0,1.654250137E0
6.701759100E0,-2.597708702E-1,2.498044968E-1,1.305876732E0,1.354694516E0
6.709785080E0,-2.894973755E-2,5.680418015E-2,1.318197250E0,1.319738153E0
6.717811060E0,2.321133614E-1,-3.349351883E-2,1.306324005E0,1.327207909E0
6.725837039E0,4.246835709E-1,-1.212673187E-1,1.325602055E0,1.397241105E0
6.733893536E0,6.443705559E-1,-1.439595222E-1,1.268063068E0,1.429657897E0
6.741919516E0,7.543988228E-1,-2.088251114E-1,1.145620823E0,1.387505885E0
6.749945495E0,7.285356522E-1,-2.763237953E-1,1.055623055E0,1.312043852E0
6.757971475E0,7.196502686E-1,-3.958220482E-1,9.859690666E-1,1.283240665E0
6.765997454E0,6.676583290E-1,-5.410897732E-1,9.418797493E-1,1.275022843E0
6.774023434E0,5.764102936E-1,-7.675347328E-1,9.629116058E-1,1.359616546E0
6.782049414E0,4.784655571E-1,-9.795336723E-1,1.021397591E0,1.493877017E0
6.790105911E0,3.139066696E-1,-1.185023546E0,1.041091919E0,1.608319180E0
6.798131890E0,9.255790710E-2,-1.295306206E0,1.052450657E0,1.671537471E0
6.806157870E0,-1.299443245E-1,-1.270677805E0,1.084388256E0,1.675531409E0
6.814183849E0,-2.611742020E-1,-1.053184271E0,1.278315544E0,1.676752726E0
6.822209829E0,-2.840232849E-1,-9.348835945E-1,1.487220764E0,1.779466820E0
6.830235809E0,-1.736364365E-1,-9.041404724E-1,1.681888580E0,1.917385929E0
6.838261788E0,-1.553392410E-2,-9.399943352E-1,1.934178352E0,2.150552615E0
6.846318285E0,1.538667679E-1,-9.679460526E-1,2.085787773E0,2.304583515E0
6.854344265E0,2.225270271E-1,-1.085376978E0,2.183180809E0,2.448231996E0
6.862370244E0,1.914968491E-1,-1.224841356E0,2.124198914E0,2.459497594E0
6.870396224E0,1.263618469E-3,-1.380279064E0,1.943251133E0,2.383568094E0
6.878422203E0,-1.633062363E-1,-1.453991413E0,1.654677868E0,2.208782199E0
6.886448183E0,-3.807778358E-1,-1.505524158E0,1.362930775E0,2.066198211E0
6.894504679E0,-5.873088837E-1,-1.610361814E0,9.579052925E-1,1.963613874E0
6.902530659E0,-8.341655731E-1,-1.762924910E0,6.099553108E-1,2.043473005E0
6.910556638E0,-1.090425968E0,-1.844065189E0,3.248043060E-1,2.166818648E0
6.918582619E0,-1.312213898E0,-1.886989117E0,1.229724884E-1,2.301685355E0
6.926608598E0,-1.402023315E0,-1.899656296E0,4.636287689E-2,2.361464151E0
6.934665094E0,-1.313351154E0,-1.846832752E0,7.625675201E-2,2.267487059E0
6.942691074E0,-1.070004940E0,-1.815949678E0,1.560311317E-1,2.113511183E0
6.950717054E0,-7.864360809E-1,-1.809382677E0,2.229685783E-1,1.985462759E0
6.958743033E0,-4.736623764E-1,-1.792067289E0,2.720651627E-1,1.873467552E0
6.966769013E0,-2.571110725E-1,-1.700736761E0,2.863454819E-1,1.743733170E0
6.974794992E0,-8.893966675E-2,-1.562283039E0,3.290834427E-1,1.599041735E0
6.982851489E0,2.527189255E-2,-1.391100883E0,3.344950676E-1,1.430974244E0
6.990877469E0,1.212396622E-1,-1.273274660E0,2.936987877E-1,1.312320995E0
6.998903448E0,1.850399971E-1,-1.231968164E0,2.710723877E-1,1.274937488E0
7.006929428E0,2.171421051E-1,-1.299668550E0,1.942772865E-1,1.331928188E0
7.014955408E0,2.087359428E-1,-1.353862047E0,1.892895699E-1,1.382875149E0
7.023011905E0,7.150077820E-2,-1.402947426E0,2.053527832E-1,1.419698421E0
7.031037884E0,-1.428599358E-1,-1.444464684E0,2.029914856E-1,1.465637311E0
7.039063864E0,-4.756722450E-1,-1.513619423E0,2.325701714E-1,1.603557522E0
7.047089843E0,-6.324272156E-1,-1.587986946E0,3.170270920E-1,1.738439789E0
7.055115823E0,-7.064719200E-1,-1.598990679E0,4.277296066E-1,1.799673965E0
7.063172320E0,-7.069873810E-1,-1.554206848E0,5.569777489E-1,1.795999526E0
7.071198300E0,-6.861953735E-1,-1.513952732E0,6.386427879E-1,1.780668856E0
7.079224279E0,-6.983747482E-1,-1.388143539E0,6.519885063E-1,1.685158386E0
7.087250259E0,-7.376012802E-1,-1.301449299E0,6.281623840E-1,1.622471543E0
7.095276238E0,-7.243580818E-1,-1.149005175E0,5.645871162E-1,1.470940561E0
7.103302218E0,-7.732100487E-1,-1.061672449E0,4.427351952E-1,1.386007439E0
7.111358715E0,-7.935514450E-1,-1.055509806E0,2.511096001E-1,1.344202692E0
7.119384695E0,-9.247584343E-1,-1.071269274E0,-7.572174072E-4,1.415201962E0
7.127410674E0,-1.055912018E0,-1.096025229E0,-1.813735962E-1,1.532683226E0
7.135436654E0,-1.197240353E0,-1.124794245E0,-3.804149628E-1,1.686197527E0
7.143462633E0,-1.327924967E0,-1.204526186E0,-4.844837189E-1,1.857146339E0
7.151488613E0,-1.427651644E0,-1.201558352E0,-4.460430145E-1,1.918563540E0
7.159545109E0,-1.437956572E0,-1.127566576E0,-2.714786530E-1,1.847383594E0
7.167571088E0,-1.346554995E0,-1.076743126E0,-9.290552139E-2,1.726620268E0
7.175597068E0,-1.168487072E0,-9.843363762E-1,1.561846733E-1,1.535797445E0
7.183623049E0,-9.665708542E-1,-8.917150497E-1,3.702898026E-1,1.366209897E0
7.191649028E0,-7.877721786E-1,-7.662289143E-1,5.267848969E-1,1.218685391E0
7.199675008E0,-6.459889412E-1,-6.079599857E-1,5.837268829E-1,1.061910604E0
7.207731504E0,-5.702028275E-1,-5.590157509E-1,5.090203285E-1,9.469591169E-1
7.215757483E0,-4.891571999E-1,-6.178696156E-1,3.483676910E-1,8.616250206E-1
7.223783463E0,-4.901227951E-1,-7.283861637E-1,1.289591789E-1,8.873540599E-1
7.231809443E0,-5.471663475E-1,-8.856468201E-1,-9.778213501E-2,1.045620700E0
7.239835422E0,-6.066322327E-1,-9.935617447E-1,-2.176246643E-1,1.184283792E0
7.247861402E0,-6.763300896E-1,-1.113571167E0,-1.538491249E-1,1.311919467E0
7.255917899E0,-6.377468109E-1,-1.259438753E0,1.418662071E-1,1.418813937E0
7.263943878E0,-4.950575829E-1,-1.357135057E0,5.760211945E-1,1.555216381E0
7.271969858E0,-2.386903763E-1,-1.371268988E0,1.079546452E0,1.761468783E0
7.279995837E0,1.216902733E-1,-1.337526083E0,1.506179333E0,2.018009100E0
7.288021817E0,4.098033905E-1,-1.261232615E0,1.781238079E0,2.220688096E0
7.296047797E0,7.316422462E-1,-1.247508287E0,1.924535275E0,2.407366471E0
7.304073776E0,1.002317429E0,-1.301754236E0,1.779617786E0,2.422032986E0
7.312130273E0,1.131115437E0,-1.374331951E0,1.371260643E0,2.246901465E0
7.320156253E0,1.144621849E0,-1.533104420E0,8.419532776E-1,2.090323817E0
7.328182232E0,1.047697067E0,-1.645339251E0,3.684315681E-1,1.985082420E0
7.336208212E0,8.145241737E-1,-1.766942263E0,-4.386997223E-2,1.946139554E0
7.344234192E0,5.491862297E-1,-1.776476145E0,-2.296757698E-1,1.873559171E0
7.352260171E0,3.257284164E-1,-1.685214281E0,-1.849651337E-1,1.726342456E0
7.360286151E0,2.114481926E-1,-1.649873972E0,6.707382202E-2,1.664720204E0
7.368342648E0,2.305154800E-1,-1.659126997E0,4.406027794E-1,1.732042317E0
7.376368627E0,3.313479424E-1,-1.765780926E0,9.724512100E-1,2.042898699E0
7.384394607E0,4.644956589E-1,-1.886831284E0,1.432837486E0,2.414313934E0
7.392420586E0,5.294799805E-1,-2.038918257E0,1.883775711E0,2.825977289E0
7.400446566E0,5.932922363E-1,-2.140276432E0,2.258570671E0,3.167636400E0
7.408472546E0,5.864677429E-1,-2.117775440E0,2.510381699E0,3.336305367E0
7.416498525E0,5.514912605E-1,-2.021821737E0,2.632118225E0,3.364513650E0
7.424555022E0,3.982620239E-1,-1.814533710E0,2.527162075E0,3.136509745E0
7.432581002E0,2.104010582E-1,-1.604437113E0,2.184018612E0,2.718165623E0
7.440606981E0,2.306842804E-2,-1.446046591E0,1.699923038E0,2.231887370E0
7.448632961E0,-1.033892632E-1,-1.309059858E0,1.201102734E0,1.779599626E0
7.456658941E0,-2.367835045E-1,-1.252046824E0,5.920600891E-1,1.405070399E0
7.464684920E0,-2.698755264E-1,-1.352182150E0,-7.506132126E-2,1.380892309E0
7.472710900E0,-3.290824890E-1,-1.519992828E0,-7.000870705E-1,1.705519097E0
7.480736879E0,-4.124321938E-1,-1.664921045E0,-1.179210186E0,2.081489626E0
7.488793376E0,-4.521384239E-1,-1.721742153E0,-1.461944103E0,2.303498591E0
7.496819356E0,-4.021067619E-1,-1.761792898E0,-1.693869591E0,2.476852489E0
7.504845335E0,-2.359066010E-1,-1.749498129E0,-1.831590176E0,2.543839264E0
7.512871315E0,4.067420959E-2,-1.767107725E0,-1.829862118E0,2.544153980E0
7.520897295E0,3.438606262E-1,-1.789833069E0,-1.818474293E0,2.574605076E0
7.528923274E0,5.753087997E-1,-1.722775221E0,-1.715503693E0,2.498376992E0
7.536949254E0,8.291974068E-1,-1.516185760E0,-1.509207249E0,2.294361375E0
7.545005751E0,1.025222301E0,-1.252636194E0,-1.325029373E0,2.091860665E0
7.553031730E0,1.103788376E0,-1.096279860E0,-1.100117207E0,1.905370352E0
7.561057710E0,1.071127892E0,-1.011997938E0,-9.066734314E-1,1.730176725E0
7.569083690E0,1.059124470E0,-9.760603905E-1,-7.389225960E-1,1.618778901E0
7.577109669E0,9.652733803E-1,-9.271316528E-1,-5.777697563E-1,1.457787259E0
7.585135649E0,8.761420250E-1,-9.573571682E-1,-4.878478050E-1,1.386417353E0
7.593161628E0,7.245955467E-1,-1.011893272E0,-3.632931709E-1,1.296514030E0
7.601187608E0,5.770564079E-1,-1.074887276E0,-2.365818024E-1,1.242717869E0
7.609244105E0,3.997974396E-1,-1.200442791E0,-1.714110374E-1,1.276825215E0
7.617270084E0,1.724929810E-1,-1.266899824E0,-1.357722282E-1,1.285777232E0
7.625296064E0,4.243850708E-5,-1.323541403E0,-1.818127632E-1,1.335970706E0
7.633322044E0,-2.102813721E-1,-1.287065506E0,-2.816314697E-1,1.334193448E0
7.641348023E0,-4.406576157E-1,-1.141633034E0,-3.817400932E-1,1.281885571E0
7.649374003E0,-5.993561745E-1,-9.904239178E-1,-5.545754433E-1,1.283635962E0
7.657399982E0,-6.869373322E-1,-8.563580513E-1,-6.992473602E-1,1.301606270E0
7.665425962E0,-7.171854973E-1,-7.248725891E-1,-8.191184998E-1,1.307956584E0
7.673482459E0,-7.394652367E-1,-6.444261074E-1,-8.731632233E-1,1.313205185E0
7.681508439E0,-7.790732384E-1,-5.205059052E-1,-8.632850647E-1,1.274026142E0
7.689534418E0,-7.464470863E-1,-4.132769108E-1,-7.997007370E-1,1.169402551E0
7.697560398E0,-6.825852394E-1,-2.997117043E-1,-7.273602486E-1,1.041538596E0
7.705586377E0,-6.493496895E-1,-2.397413254E-1,-7.174911499E-1,9.969576082E-1
7.713612357E0,-5.646820068E-1,-1.891033649E-1,-7.965292931E-1,9.945274085E-1
7.721638336E0,-4.998626709E-1,-1.718895435E-1,-8.812007904E-1,1.027581402E0
7.729694833E0,-3.899302483E-1,-1.234350204E-1,-1.048609257E0,1.125550166E0
7.737720813E0,-3.621835709E-1,-4.898643494E-2,-1.231544971E0,1.284632098E0
7.745746793E0,-4.038062096E-1,7.722926140E-2,-1.395515919E0,1.454815622E0
7.753772772E0,-4.485893250E-1,2.663626671E-1,-1.401816845E0,1.495751289E0
7.761798752E0,-4.928455353E-1,4.277315140E-1,-1.312067032E0,1.465391028E0
7.769824731E0,-5.137009621E-1,5.332999229E-1,-1.105604649E0,1.330661161E0
7.777881227E0,-5.592927933E-1,5.845119953E-1,-8.440508842E-1,1.169138399E0
7.785907207E0,-5.648460388E-1,5.693674088E-1,-5.575342178E-1,9.767674737E-1
7.793933187E0,-5.596976280E-1,5.334858894E-1,-3.069109917E-1,8.319032311E-1
7.801959167E0,-4.819865227E-1,5.053369999E-1,-8.942699432E-2,7.040409639E-1
7.809985147E0,-3.640704155E-1,4.656541348E-1,1.253018379E-1,6.042198203E-1
7.818041643E0,-2.970352173E-1,3.564791679E-1,2.425904274E-1,5.236004516E-1
7.826067622E0,-2.653565407E-1,3.208491802E-1,2.571568489E-1,4.893750454E-1
7.834093602E0,-3.154540062E-1,3.335306644E-1,2.122831345E-1,5.057846017E-1
7.842119581E0,-3.554186821E-1,3.572995663E-1,1.228804588E-1,5.187340617E-1
7.850145561E0,-3.699178696E-1,3.601338863E-1,3.478002548E-2,5.174411044E-1
7.858171541E0,-3.676428795E-1,3.233985901E-1,-2.011442184E-2,4.900535939E-1
7.866228038E0,-3.260078430E-1,3.025929928E-1,-2.435255051E-2,4.454623213E-1
7.874254017E0,-2.489271164E-1,2.496504784E-1,1.020970345E-1,3.670338882E-1
7.882279997E0,-1.137471199E-1,2.402215004E-1,3.029379845E-1,4.030089316E-1
7.890305976E0,1.151981354E-1,2.333049774E-1,5.257258415E-1,5.865914109E-1
7.898331956E0,3.917450905E-1,8.243703842E-2,7.569890022E-1,8.563249563E-1
7.906388453E0,6.692309380E-1,-3.685712814E-2,9.330120087E-1,1.148799332E0
7.914414433E0,9.166927338E-1,-1.193864346E-1,1.027571201E0,1.382201600E0
7.922440412E0,1.080359936E0,-2.174203396E-1,1.064182758E0,1.531970671E0
7.930466392E0,1.207383156E0,-3.185641766E-1,9.981355667E-1,1.598603087E0
7.938522889E0,1.245316029E0,-4.240770340E-1,8.360323906E-1,1.558718544E0
7.946548868E0,1.265240669E0,-5.299789906E-1,6.059579849E-1,1.499632209E0
7.954574848E0,1.284853935E0,-6.049797535E-1,4.533629417E-1,1.490767619E0
7.962631344E0,1.264153481E0,-6.737060547E-1,4.361286163E-1,1.497388407E0
7.970657323E0,1.263148308E0,-6.899437904E-1,5.381293297E-1,1.536603155E0
7.978683303E0,1.239833832E0,-6.814706326E-1,7.934603691E-1,1.622088010E0
7.986709283E0,1.288613319E0,-6.880757809E-1,1.194352150E0,1.886915373E0
7.994765780E0,1.343132973E0,-6.944327354E-1,1.606911659E0,2.206446937E0
8.002791759E0,1.438000679E0,-6.723644733E-1,2.007681847E0,2.559434769E0
8.010817739E0,1.520165443E0,-6.256265640E-1,2.435130119E0,2.938055526E0
8.018843718E0,1.645363331E0,-6.350352764E-1,2.758731842E0,3.274307815E0
8.026900215E0,1.711548805E0,-7.197599411E-1,2.970092773E0,3.502699640E0
8.034926195E0,1.703390121E0,-8.787559271E-1,3.055314064E0,3.606756703E0
8.042952175E0,1.612660408E0,-1.040445566E0,2.942730904E0,3.513241486E0
8.050978154E0,1.409338951E0,-1.239099979E0,2.676006317E0,3.268426968E0
8.059004134E0,1.070258617E0,-1.396043181E0,2.174134254E0,2.796649751E0
8.067060631E0,7.814908028E-1,-1.439746737E0,1.581467628E0,2.276980106E0
8.075086610E0,5.698199272E-1,-1.483441830E0,9.768161774E-1,1.865332211E0
8.083112590E0,4.234981537E-1,-1.512516975E0,4.410696030E-1,1.631441290E0
8.091138570E0,4.274067879E-1,-1.604279160E0,5.480289459E-2,1.661141639E0
8.099195066E0,4.388165474E-1,-1.707245708E0,-3.084988594E-1,1.789530501E0
8.107221045E0,4.811420441E-1,-1.755889893E0,-4.848165512E-1,1.884063181E0
8.115247026E0,6.655559540E-1,-1.773486853E0,-4.772901535E-1,1.953465187E0
8.123273005E0,7.643947601E-1,-1.769881725E0,-4.067344666E-1,1.970333372E0
8.131298985E0,8.722352982E-1,-1.769289494E0,-3.005247116E-1,1.995368344E0
8.139355481E0,1.016703606E0,-1.710882068E0,-2.523393631E-1,2.006110372E0
8.147381460E0,1.230416298E0,-1.652025580E0,-2.178678513E-1,2.071371330E0
8.155407440E0,1.326714516E0,-1.615291357E0,-2.674493790E-1,2.107336410E0
8.163433420E0,1.325280666E0,-1.602359295E0,-4.051628113E-1,2.118509159E0
8.171459399E0,1.329185963E0,-1.530062318E0,-4.987697601E-1,2.087246342E0
8.179485379E0,1.300720215E0,-1.470546246E0,-6.941757202E-1,2.082368668E0
8.187541876E0,1.137798786E0,-1.471718788E0,-8.718590736E-1,2.054429486E0
8.195567855E0,9.269514084E-1,-1.507067204E0,-1.012730122E0,2.038654647E0
8.203593835E0,7.153797150E-1,-1.486043692E0,-1.065849304E0,1.963702811E0
8.211619815E0,4.506349564E-1,-1.524691820E0,-1.104158878E0,1.935697249E0
8.219645794E0,1.840090752E-1,-1.584818721E0,-1.033525467E0,1.900969386E0
8.227702291E0,5.027437210E-2,-1.662552953E0,-9.649839401E-1,1.922967456E0
8.235728271E0,2.794122696E-2,-1.738808632E0,-8.421092033E-1,1.932196698E0
8.243754250E0,2.312278748E-2,-1.741579533E0,-7.031526566E-1,1.878312431E0
8.251780230E0,2.759313583E-2,-1.723434448E0,-5.597629547E-1,1.812269915E0
8.259806209E0,4.933118820E-2,-1.685471535E0,-5.104079247E-1,1.761750297E0
8.267832189E0,5.126905441E-2,-1.637398958E0,-5.105304718E-1,1.715909446E0
8.275888686E0,4.043626785E-2,-1.543067336E0,-6.191997528E-1,1.663159713E0
8.283914666E0,1.010370255E-2,-1.515017867E0,-7.576756477E-1,1.693946165E0
8.291940645E0,-7.673406601E-2,-1.479906321E0,-9.199991226E-1,1.744250332E0
8.299966625E0,-1.759362221E-1,-1.442692757E0,-1.064396858E0,1.801459579E0
8.307992604E0,-2.418851852E-1,-1.408180714E0,-1.196555138E0,1.863659186E0
8.316049101E0,-2.721548080E-1,-1.359420419E0,-1.238392353E0,1.858953398E0
8.324075081E0,-2.977027893E-1,-1.371364236E0,-1.157073498E0,1.818814421E0
8.332101061E0,-2.563447952E-1,-1.345077872E0,-1.027064800E0,1.711668555E0
8.340127040E0,-2.037115097E-1,-1.291083932E0,-8.070359230E-1,1.536132507E0
8.348153020E0,-1.490492821E-1,-1.214956760E0,-5.674600601E-1,1.349202186E0
8.356209516E0,-4.765796661E-2,-1.102512240E0,-3.716692924E-1,1.164449477E0
8.364235495E0,5.300998688E-2,-1.004333019E0,-2.309131622E-1,1.031899104E0
8.372261476E0,1.375660896E-1,-9.078350067E-1,-1.859836578E-1,9.368451043E-1
8.380287456E0,1.571941376E-1,-9.063780308E-1,-2.879199982E-1,9.639134074E-1
8.388313435E0,5.226659775E-2,-8.232092857E-1,-5.100393295E-1,9.698172215E-1
8.396369931E0,-7.579183578E-2,-7.769775391E-1,-7.369475365E-1,1.073559579E0
8.404395911E0,-2.855238914E-1,-7.154023647E-1,-9.461436272E-1,1.220045982E0
8.412421890E0,-4.121565819E-1,-6.534349918E-1,-1.104818821E0,1.348137591E0
8.420447870E0,-5.337600708E-1,-6.133716106E-1,-1.172668457E0,1.426981379E0
8.428473849E0,-5.957703590E-1,-5.403862000E-1,-1.121158600E0,1.379839183E0
8.436499829E0,-4.792222977E-1,-4.587972164E-1,-9.621114731E-1,1.168677622E0
8.444556326E0,-2.534151077E-1,-4.330422878E-1,-7.502541542E-1,9.025664163E-1
8.452582306E0,1.235055923E-2,-4.286410809E-1,-4.204587936E-1,6.005591642E-1
8.460608285E0,3.557577133E-1,-4.024827480E-1,-8.716678619E-2,5.442002955E-1
8.468634265E0,6.442160606E-1,-4.267396927E-1,1.323986053E-1,7.839964852E-1
8.476690762E0,8.568997383E-1,-5.016751289E-1,2.414131165E-1,1.021878363E0
8.484716741E0,9.953989983E-1,-6.165908575E-1,2.769651413E-1,1.203209517E0
8.492742721E0,1.100032330E0,-7.386043072E-1,2.086172104E-1,1.341315992E0
8.500768701E0,1.149531364E0,-8.570307493E-1,1.004743576E-1,1.437365354E0
8.508794680E0,1.199697018E0,-8.855782747E-1,-4.557800293E-2,1.491844217E0
8.516851177E0,1.213013172E0,-9.229606390E-1,-2.500114441E-1,1.544591538E0
8.524877157E0,1.372599125E0,-9.842288494E-1,-5.023112297E-1,1.762115591E0
8.532903136E0,1.287384033E0,-9.189480543E-1,-7.154912949E-1,1.736015832E0
8.540929116E0,1.224750519E0,-1.040992975E0,-9.835834503E-1,1.884440663E0
8.548985612E0,1.113837719E0,-1.165966153E0,-1.237631798E0,2.032693780E0
8.557011591E0,8.200225830E-1,-1.259901881E0,-1.383830547E0,2.043227048E0
8.565037572E0,6.537771225E-1,-1.366728663E0,-1.546109676E0,2.164677088E0
8.573063552E0,4.246845245E-1,-1.475639582E0,-1.650260925E0,2.254158433E0
8.581089531E0,2.562532425E-1,-1.570510387E0,-1.697060585E0,2.326409945E0
8.589146027E0,2.286930084E-1,-1.640247941E0,-1.589925766E0,2.295773887E0
8.597172007E0,2.852091789E-1,-1.611549854E0,-1.508500099E0,2.225760490E0
8.605197986E0,3.241043091E-1,-1.620499253E0,-1.369824886E0,2.146504519E0
8.613223966E0,2.986602783E-1,-1.588742971E0,-1.198424816E0,2.012342971E0
8.621280463E0,2.278676033E-1,-1.552520871E0,-1.015076637E0,1.868856677E0
8.629306443E0,4.575634003E-2,-1.537340045E0,-7.701435089E-1,1.720066592E0
8.637332422E0,-2.408952713E-1,-1.405636907E0,-3.957014084E-1,1.480008530E0
8.645358402E0,-5.173583031E-1,-1.157389402E0,2.434253693E-2,1.267991483E0
8.653384381E0,-6.474685669E-1,-8.186568618E-1,4.042973518E-1,1.119317181E0
8.661410361E0,-6.701731682E-1,-5.580272675E-1,8.914442062E-1,1.247076293E0
8.669466858E0,-5.269088745E-1,-5.242913365E-1,1.226935387E0,1.434532959E0
8.677492838E0,-3.264861107E-1,-6.843584776E-1,1.374114513E0,1.569436333E0
8.685518817E0,-1.907572746E-1,-9.100292921E-1,1.222714901E0,1.536090290E0
8.693544797E0,-1.508264542E-1,-1.202400446E0,9.329047203E-1,1.529322291E0
8.701601294E0,-2.239165306E-1,-1.463974833E0,5.020051003E-1,1.563767900E0
8.709627273E0,-3.551259041E-1,-1.572482586E0,5.422973633E-2,1.612996204E0
8.717653253E0,-5.144186020E-1,-1.667161703E0,-3.452401161E-1,1.778551484E0
8.725679232E0,-6.823463440E-1,-1.739622474E0,-7.161560059E-1,2.001190223E0
8.733705212E0,-7.569384575E-1,-1.784337878E0,-9.643340111E-1,2.164892047E0
8.741761708E0,-7.963819504E-1,-1.725499630E0,-1.105726242E0,2.198682266E0
8.749787688E0,-7.461442947E-1,-1.612506151E0,-1.120639801E0,2.100652508E0
8.757813668E0,-6.102333069E-1,-1.449660540E0,-1.043131828E0,1.887332610E0
8.765839648E0,-4.669022560E-1,-1.291757107E0,-8.641037941E-1,1.622747518E0
8.773865627E0,-2.931013107E-1,-1.106740236E0,-6.302695274E-1,1.306913159E0
8.781922123E0,3.381252289E-2,-9.581538439E-1,-3.945269585E-1,1.036751463E0
8.789948103E0,3.191452026E-1,-8.277815580E-1,-1.968245506E-1,9.087441180E-1
8.797974083E0,4.521098137E-1,-7.168430090E-1,4.957103729E-2,8.489549287E-1
8.806000062E0,4.059710503E-1,-6.413754225E-1,3.134245872E-1,8.212246332E-1
8.814026042E0,1.624107361E-1,-5.476779938E-1,5.598216057E-1,7.998303959E-1
8.822082539E0,-1.838359833E-1,-3.742214143E-1,8.470349312E-1,9.440897787E-1
8.830108518E0,-5.125474930E-1,-2.560009956E-1,1.035056114E0,1.183039561E0
8.838134498E0,-7.490382195E-1,-2.328980565E-1,1.062983513E0,1.321072938E0
8.846160477E0,-9.739379883E-1,-2.783800364E-1,1.001303196E0,1.424309917E0
8.854186457E0,-1.155404091E0,-3.789438009E-1,9.349980354E-1,1.533876900E0
8.862242954E0,-1.338963985E0,-4.247520268E-1,9.319319725E-1,1.685744951E0
8.870268934E0,-1.497827053E0,-3.424661160E-1,9.373483658E-1,1.799830792E0
8.878294913E0,-1.576689720E0,-2.492291927E-1,9.949941635E-1,1.880978216E0
8.886320893E0,-1.617330551E0,-1.253376007E-1,1.068017006E0,1.942196682E0
8.894377390E0,-1.578058243E0,-2.191841602E-3,1.088764668E0,1.917206594E0
8.902403369E0,-1.481391907E0,1.067519784E-1,1.070427418E0,1.830773832E0
8.910429349E0,-1.421549320E0,2.065329552E-1,1.018740177E0,1.761047949E0
8.918455329E0,-1.391342163E0,2.665359974E-1,9.023094177E-1,1.679594218E0
8.926511825E0,-1.411894321E0,2.815789282E-1,6.988821030E-1,1.600365103E0
8.934537804E0,-1.481925964E0,2.768691778E-1,4.905376434E-1,1.585366924E0
8.942563785E0,-1.596494198E0,2.551651597E-1,2.534675598E-1,1.636505052E0
8.950589764E0,-1.719162464E0,2.928082347E-1,3.274202347E-2,1.744227130E0
8.958646260E0,-1.837207317E0,3.968870044E-1,-1.244540215E-1,1.883703486E0
8.966672240E0,-2.007983685E0,4.764449894E-1,-1.890664101E-1,2.072376513E0
8.974698220E0,-2.075058460E0,5.304120183E-1,-2.146248817E-1,2.152502814E0
8.982724199E0,-2.081512928E0,5.895928741E-1,-1.699357033E-1,2.170067734E0
8.990780696E0,-2.060059071E0,6.838080883E-1,6.373882294E-3,2.170593813E0
8.998806676E0,-1.986807346E0,7.747293711E-1,2.499265671E-1,2.147107896E0
9.006832655E0,-1.944959164E0,8.284500837E-1,4.060935974E-1,2.152697772E0
9.014858635E0,-1.977778912E0,9.462611675E-1,5.657911301E-1,2.264318711E0
9.022884614E0,-2.105470181E0,1.140334010E0,8.067946434E-1,2.526714058E0
9.030941112E0,-2.304867744E0,1.307138085E0,1.089515686E0,2.864972901E0
9.038967091E0,-2.464334011E0,1.426699400E0,1.411134720E0,3.178004798E0
9.046993071E0,-2.569897175E0,1.462866426E0,1.842579842E0,3.484171371E0
9.055019050E0,-2.578092575E0,1.500839949E0,2.360044479E0,3.803799656E0
9.063075547E0,-2.317707539E0,1.548201561E0,3.062448025E0,4.140927941E0
9.071101527E0,-1.818101406E0,1.656366110E0,3.710825443E0,4.451883521E0
9.079127506E0,-1.207370758E0,1.892914295E0,4.271840096E0,4.825918201E0
9.087184002E0,-5.079097748E-1,2.237244129E0,4.638508320E0,5.174842323E0
9.095209982E0,1.281566620E-1,2.509020090E0,4.736790180E0,5.361789548E0
9.103235962E0,7.676982880E-1,2.692421198E0,4.652025223E0,5.429533243E0
9.111261941E0,1.242941856E0,2.730094671E0,4.391123772E0,5.317921525E0
9.119318438E0,1.504485130E0,2.747724056E0,4.096849442E0,5.157289825E0
9.127344418E0,1.572131157E0,2.768168926E0,3.849268436E0,4.995119926E0
9.135370397E0,1.588627815E0,2.847071171E0,3.728043079E0,4.952560730E0
9.143396377E0,1.676097870E0,2.873275757E0,3.694431305E0,4.971301672E0
9.151422357E0,1.849411011E0,2.722671032E0,3.823292255E0,5.044880802E0
9.159478854E0,2.187937737E0,2.456477165E0,4.088498592E0,5.247587288E0
9.167504833E0,2.666886330E0,2.172544241E0,4.360105991E0,5.553625431E0
9.175530813E0,2.957566261E0,1.979214430E0,4.657720089E0,5.861641782E0
9.183556792E0,3.233135223E0,1.878310204E0,4.998592377E0,6.242366406E0
9.191582772E0,3.343328476E0,1.966683507E0,5.313539982E0,6.578707810E0
9.199639269E0,3.289620399E0,2.156101465E0,5.600018501E0,6.843287449E0
9.207665248E0,3.097032547E0,2.425748348E0,5.679127216E0,6.908570879E0
9.215691228E0,2.801939011E0,2.734735489E0,5.609472275E0,6.840747007E0
9.223717208E0,2.350702286E0,3.113502026E0,5.356256485E0,6.626400202E0
9.231773704E0,1.838901520E0,3.403337955E0,4.885895252E0,6.231872949E0
9.239799683E0,1.411823273E0,3.570041895E0,4.213757038E0,5.700367748E0
9.247825663E0,1.038273811E0,3.602551937E0,3.455696583E0,5.098846128E0
9.255851643E0,7.372035980E-1,3.535403252E0,2.776073456E0,4.555121198E0
9.263877623E0,4.238204956E-1,3.298644066E0,2.025768757E0,3.894151453E0
9.271934119E0,1.900262833E-1,3.062117577E0,1.366400242E0,3.358529985E0
9.279960099E0,7.012367249E-2,2.762981415E0,9.085910320E-1,2.909385037E0
9.287986078E0,1.323413849E-2,2.379177570E0,6.241340637E-1,2.459716322E0
9.296012058E0,6.306934357E-2,2.009215593E0,4.562623501E-1,2.061334610E0
9.304068555E0,1.080360413E-1,1.606715322E0,4.303560257E-1,1.666856988E0
9.312094534E0,1.335573196E-1,1.218428731E0,4.543635845E-1,1.307230812E0
9.320120514E0,1.584672928E-1,9.124625921E-1,5.895385742E-1,1.097841334E0
9.328146494E0,2.374277115E-1,6.711491346E-1,7.922515869E-1,1.065117672E0
9.336172473E0,3.563241959E-1,5.057842731E-1,1.019950867E0,1.192931027E0
9.344228970E0,5.351076126E-1,4.227244854E-1,1.291946888E0,1.460877445E0
9.352254950E0,6.832332611E-1,4.576948881E-1,1.513874054E0,1.722819477E0
9.360280929E0,8.034019470E-1,4.496518373E-1,1.635438204E0,1.876779044E0
9.368306909E0,8.723306656E-1,4.422403574E-1,1.642217875E0,1.911391344E0
9.376332888E0,8.781194687E-1,3.925310373E-1,1.573601961E0,1.844287816E0
9.384358868E0,8.162069321E-1,3.676114082E-1,1.436486483E0,1.692579487E0
9.392415365E0,6.936788559E-1,3.108046055E-1,1.251978874E0,1.464664111E0
9.400441345E0,4.958992004E-1,2.124012709E-1,1.035378933E0,1.167492977E0
9.408467324E0,1.722650528E-1,1.013052464E-1,8.455040455E-1,8.688009509E-1
9.416493304E0,-1.285696030E-1,3.601312637E-4,7.404704094E-1,7.515495324E-1
9.424519283E0,-4.732236862E-1,-6.308805943E-2,6.435737610E-1,8.013163834E-1
9.432545263E0,-6.940488815E-1,-1.119132042E-1,6.250784397E-1,9.407185929E-1
9.440601760E0,-7.958145142E-1,-1.807599068E-1,6.692273617E-1,1.055395730E0
9.448627740E0,-8.573875427E-1,-2.556964159E-1,6.920402050E-1,1.131111710E0
9.456653719E0,-9.180431366E-1,-4.071154594E-1,6.544990540E-1,1.198713982E0
9.464679699E0,-1.027413368E0,-5.578200817E-1,5.429966450E-1,1.289025535E0
9.472705678E0,-1.160967827E0,-7.722158432E-1,3.939929008E-1,1.448928573E0
9.480762174E0,-1.316186905E0,-9.360934496E-1,2.553751469E-1,1.635186650E0
9.488788154E0,-1.419580460E0,-1.076452374E0,1.312806606E-1,1.786391057E0
9.496814133E0,-1.559209824E0,-1.149312735E0,3.277778625E-3,1.937024982E0
9.504840113E0,-1.683023453E0,-1.275683880E0,-1.153779030E-1,2.115005760E0
9.512866094E0,-1.840733528E0,-1.354269028E0,-2.314786911E-1,2.296938594E0
9.520922590E0,-1.951260567E0,-1.471892357E0,-3.420572281E-1,2.467972459E0
9.528948569E0,-2.149173260E0,-1.631721854E0,-4.170465469E-1,2.730455957E0
9.536974549E0,-2.271799564E0,-1.753392696E0,-3.239891529E-1,2.887979948E0
9.545000528E0,-2.374233723E0,-1.877876282E0,-1.587877274E-1,3.031273436E0
9.553026508E0,-2.463266850E0,-2.027947426E0,4.587435722E-2,3.190980851E0
9.561083005E0,-2.555700302E0,-2.150917053E0,2.706515789E-1,3.351313247E0
9.569108985E0,-2.641794682E0,-2.292328358E0,3.515303135E-1,3.515312504E0
9.577134964E0,-2.659006119E0,-2.359906197E0,3.611083031E-1,3.573495488E0
9.585160944E0,-2.564573765E0,-2.471686602E0,3.336393833E-1,3.577371729E0
9.593186923E0,-2.525489807E0,-2.567738056E0,2.204711437E-1,3.608321634E0
9.601212903E0,-2.549169540E0,-2.687195063E0,6.279575825E-2,3.704487273E0
9.609269400E0,-2.509011745E0,-2.795309782E0,-1.481926441E-1,3.759103321E0
9.617295380E0,-2.440982819E0,-2.854917765E0,-3.049713373E-1,3.768548803E0
9.625321359E0,-2.326407433E0,-2.891417503E0,-5.158914328E-1,3.746813405E0
9.633347339E0,-2.244431496E0,-2.877346992E0,-6.917425394E-1,3.714176382E0
9.641373318E0,-2.145111561E0,-2.887887955E0,-8.189420700E-1,3.689453423E0
9.649399298E0,-1.968814373E0,-2.844856977E0,-9.058195353E-1,3.576303998E0
9.657455795E0,-1.813914776E0,-2.821033001E0,-9.151952267E-1,3.476506337E0
9.665481774E0,-1.644569397E0,-2.812728405E0,-8.943903446E-1,3.378754751E0
9.673507754E0,-1.436972618E0,-2.896035910E0,-7.750377059E-1,3.324544742E0
9.681533734E0,-1.200661659E0,-3.003865004E0,-6.165901423E-1,3.293171235E0
9.689559713E0,-9.784784317E-1,-3.097504139E0,-4.436368942E-1,3.278531016E0
9.697616209E0,-8.106288910E-1,-3.116767883E0,-3.084349632E-1,3.235196032E0
9.705642190E0,-5.816593170E-1,-3.124363899E0,-1.384062767E-1,3.181058571E0
9.713668169E0,-3.748178482E-1,-3.097966671E0,3.585016727E-2,3.120764513E0
9.721694149E0,-1.923580170E-1,-3.133902550E0,1.811156273E-1,3.145019820E0
9.729720129E0,6.606101990E-3,-3.189630270E0,2.830892801E-1,3.202174955E0
9.737776625E0,1.910486221E-1,-3.177713394E0,2.965856791E-1,3.197237097E0
9.745802604E0,4.251585007E-1,-3.274296522E0,2.497668266E-1,3.311217440E0
9.753828584E0,6.651468277E-1,-3.418350458E0,1.738957167E-1,3.486800808E0
9.761854563E0,8.362741470E-1,-3.594435692E0,1.600793600E-1,3.693906847E0
9.769911060E0,1.029547691E0,-3.679093361E0,1.449799538E-1,3.823181345E0
9.777937040E0,1.101366043E0,-3.650718689E0,1.959097385E-1,3.818263314E0
9.785963019E0,1.208357811E0,-3.614987373E0,3.501121998E-1,3.827641684E0
9.794019516E0,1.250408173E0,-3.504163265E0,5.689406395E-1,3.763824417E0
9.802045496E0,1.242373466E0,-3.315129280E0,8.041473627E-1,3.630458229E0
9.810071476E0,1.189792633E0,-3.020262718E0,1.114556909E0,3.432175768E0
9.818097455E0,1.119375229E0,-2.589452982E0,1.412233114E0,3.154785257E0
9.826123435E0,1.086491585E0,-2.059830666E0,1.800264597E0,2.943521523E0
9.834179932E0,1.005652428E0,-1.515033960E0,2.174391508E0,2.834544608E0
9.842205911E0,8.962078094E-1,-9.183020592E-1,2.422973633E0,2.741763727E0
9.850231891E0,7.914295197E-1,-3.149766922E-1,2.531062126E0,2.670551720E0
9.858257871E0,6.997747421E-1,1.730828285E-1,2.504981041E0,2.606640054E0
9.866314367E0,5.844888687E-1,6.088953018E-1,2.259791613E0,2.412268405E0
9.874340346E0,5.425558090E-1,8.720061779E-1,1.851389170E0,2.117168732E0
9.882366326E0,5.393171310E-1,8.893420696E-1,1.322109222E0,1.682190560E0
9.890422823E0,5.326948166E-1,7.796263695E-1,7.839628458E-1,1.227264758E0
9.898448802E0,5.163326263E-1,6.493132114E-1,3.462542892E-1,8.989433021E-1
9.906474782E0,4.956331253E-1,5.378308296E-1,-2.583342791E-2,7.318343817E-1
9.914500762E0,4.605550766E-1,4.550461769E-1,-3.107052445E-1,7.181335187E-1
9.922526741E0,4.283218384E-1,3.860294819E-1,-4.217501879E-1,7.143889550E-1
9.930583238E0,4.073753357E-1,3.268611431E-1,-4.447975159E-1,6.860303937E-1
9.938609218E0,4.626016617E-1,2.205300331E-1,-4.380854964E-1,6.742052322E-1
9.946635197E0,6.170082092E-1,1.080951691E-1,-3.430889845E-1,7.142084759E-1
9.954661177E0,8.056039810E-1,9.896326065E-2,-2.019103169E-1,8.363966029E-1
9.962687156E0,9.255990982E-1,1.785793304E-1,-2.573454380E-2,9.430199015E-1
9.970743653E0,9.524154663E-1,2.563877106E-1,1.367885470E-1,9.957615102E-1
9.978769633E0,9.897346497E-1,3.287334442E-1,2.390435338E-1,1.069944936E0
9.986795613E0,1.037955284E0,4.063134193E-1,2.860137820E-1,1.150758728E0
9.994821592E0,9.229450226E-1,4.933710098E-1,3.802609444E-1,1.113481412E0
1.000287809E1,6.585922241E-1,5.702061653E-1,3.961679935E-1,9.569889591E-1
1.001090407E1,3.865880966E-1,6.474385262E-1,4.355903268E-1,8.708420835E-1
1.001893005E1,1.315126419E-1,7.408680916E-1,4.623034000E-1,8.831226063E-1
1.002695603E1,-1.096897125E-1,8.106608391E-1,4.842684269E-1,9.506412248E-1
1.003498201E1,-3.100461960E-1,8.364434242E-1,5.372652411E-1,1.041354975E0
1.004303850E1,-4.349627495E-1,9.182505608E-1,6.027251482E-1,1.181378132E0
1.005106448E1,-4.596428871E-1,1.021651745E0,7.157170773E-1,1.329396407E0
1.005909046E1,-4.385857582E-1,1.169075012E0,8.701794744E-1,1.521941579E0
1.006711644E1,-3.688745499E-1,1.401894569E0,1.119274855E0,1.831434688E0
1.007514242E1,-1.905469894E-1,1.638581514E0,1.421386003E0,2.177520541E0
1.008319892E1,4.295539856E-2,1.858534575E0,1.655580044E0,2.489365624E0
1.009122490E1,2.352094650E-1,2.082141876E0,1.825672150E0,2.779157621E0
1.009925088E1,4.613304138E-1,2.299876451E0,1.896092176E0,3.016193459E0
1.010727686E1,6.628408432E-1,2.598926067E0,1.875597596E0,3.272864346E0
1.011530284E1,8.175964355E-1,2.810986996E0,1.785328984E0,3.428922776E0
1.012335933E1,9.052491188E-1,2.989675283E0,1.652459502E0,3.533872759E0
1.013138531E1,1.014199257E0,3.067948103E0,1.494446397E0,3.560094904E0
1.013941129E1,1.074882984E0,3.122484922E0,1.281388640E0,3.542208685E0
1.014743727E1,1.112767696E0,3.189032316E0,1.021726847E0,3.528754002E0
1.015546325E1,1.146711826E0,3.269693136E0,7.587018609E-1,3.547036754E0
1.016351975E1,1.119683743E0,3.413030863E0,5.175359249E-1,3.629092833E0
1.017154573E1,1.151395321E0,3.518626213E0,3.311678469E-1,3.717003330E0
1.017957171E1,1.133363724E0,3.628716469E0,2.414657623E-1,3.809252191E0
1.018759769E1,1.161582470E0,3.647887707E0,1.934861392E-1,3.833248680E0
1.019565418E1,1.147328854E0,3.695762634E0,2.983369827E-1,3.881240768E0
1.020368017E1,1.196480751E0,3.710731983E0,4.178974628E-1,3.921190677E0
1.021170614E1,1.266043663E0,3.745593071E0,4.889842570E-1,3.983897541E0
1.021973212E1,1.379597664E0,3.696967125E0,6.045618653E-1,3.992035907E0
1.022775810E1,1.616444588E0,3.696921825E0,7.096474171E-1,4.096794301E0
1.023581460E1,1.858844757E0,3.694689989E0,8.547741175E-1,4.223348996E0
1.024384058E1,2.099358559E0,3.666027784E0,9.898898005E-1,4.339003099E0
1.025186656E1,2.327919006E0,3.643905878E0,1.111035705E0,4.464488468E0
1.025989254E1,2.447462082E0,3.660375834E0,1.242304206E0,4.575122034E0
1.026791852E1,2.565093994E0,3.698427916E0,1.394067645E0,4.711846861E0
1.027594450E1,2.642388821E0,3.731613398E0,1.556720138E0,4.830169233E0
1.028400100E1,2.751208782E0,3.733678579E0,1.688906431E0,4.935778604E0
1.029202697E1,3.007022381E0,3.666962385E0,1.755747318E0,5.056821668E0
1.030005295E1,3.235373497E0,3.570156813E0,1.799319148E0,5.143074054E0
1.030807893E1,3.510840893E0,3.383809566E0,1.849329948E0,5.214996857E0
1.031613543E1,3.806379318E0,3.054396629E0,1.907063246E0,5.239728286E0
1.032416141E1,4.055335045E0,2.670535803E0,1.966650844E0,5.238818506E0
1.033218739E1,4.293526649E0,2.347015858E0,2.087596893E0,5.319860460E0
1.034021337E1,4.385895729E0,2.090249538E0,2.219494581E0,5.341477387E0
1.034823935E1,4.513163567E0,1.834555626E0,2.392387629E0,5.427500188E0
1.035626533E1,4.604951382E0,1.682230949E0,2.554575205E0,5.528230519E0
1.036432183E1,4.731940269E0,1.582135677E0,2.738632441E0,5.691618369E0
1.037234780E1,4.830099106E0,1.645206928E0,2.909931183E0,5.874032916E0
1.038037379E1,4.796430111E0,1.864288807E0,3.053231716E0,5.983605809E0
1.038839976E1,4.807236671E0,2.286283493E0,3.213458061E0,6.217952182E0
1.039645626E1,4.688617706E0,2.792200565E0,3.359614134E0,6.408317027E0
1.040448224E1,4.402875900E0,3.372791767E0,3.416086912E0,6.513884424E0
1.041250822E1,4.043490410E0,3.948779583E0,3.390149593E0,6.590583370E0
1.042053420E1,3.698938847E0,4.330316067E0,3.331814528E0,6.598088653E0
1.042856018E1,3.218220234E0,4.607868195E0,3.171348095E0,6.453436256E0
1.043661668E1,2.760280132E0,4.709877491E0,2.960045099E0,6.209988678E0
1.044464266E1,2.294323444E0,4.698517799E0,2.714334965E0,5.891315972E0
1.045266864E1,1.940938473E0,4.464229584E0,2.416594267E0,5.434750756E0
1.046069461E1,1.743030548E0,4.121818542E0,2.134633303E0,4.958245953E0
1.046872060E1,1.752943993E0,3.585017681E0,1.894721031E0,4.417593485E0
1.047677709E1,1.799679756E0,2.960843086E0,1.764637351E0,3.888365207E0
1.048480307E1,1.901516914E0,2.399761677E0,1.686164021E0,3.495392938E0
1.049282905E1,2.145606041E0,1.845753193E0,1.665297985E0,3.283846451E0
1.050085503E1,2.417959213E0,1.434401035E0,1.700915575E0,3.285901228E0
1.050888101E1,2.785464287E0,1.038800716E0,1.792315960E0,3.471356323E0
1.051690699E1,3.119042397E0,6.522307396E-1,1.869682074E0,3.694528585E0
1.052496349E1,3.487555504E0,3.793001175E-1,1.982025385E0,4.029309692E0
1.053298946E1,3.701235771E0,1.879982948E-1,2.068512917E0,4.244200193E0
1.054101545E1,3.778464317E0,1.130323410E-1,2.137756348E0,4.342760770E0
1.054904142E1,3.782777786E0,1.430392265E-1,2.110379696E0,4.334001668E0
1.055706740E1,3.763370514E0,1.492857933E-1,1.999181747E0,4.264032309E0
1.056512390E1,3.736481667E0,6.128883362E-2,1.904848814E0,4.194460701E0
1.057314988E1,3.656710625E0,5.712032318E-3,1.771568060E0,4.063252221E0
1.058117586E1,3.508436203E0,-5.198621750E-2,1.687443972E0,3.893493844E0
1.058920184E1,3.399993896E0,-7.777738571E-2,1.633953452E0,3.773037464E0
1.059725834E1,3.319297791E0,-1.465549469E-1,1.598499894E0,3.687060901E0
1.060528432E1,3.238015175E0,-2.198023796E-1,1.584659100E0,3.611675487E0
1.061331030E1,3.149056435E0,-2.667202950E-1,1.586670280E0,3.536271867E0
1.062133628E1,3.062503815E0,-3.706002235E-1,1.615309596E0,3.482168754E0
1.062936226E1,2.947396278E0,-4.500908852E-1,1.633401155E0,3.399665566E0
1.063738824E1,2.819869041E0,-4.948453903E-1,1.681980491E0,3.320480649E0
1.064544473E1,2.770673752E0,-5.081753731E-1,1.766688585E0,3.325065985E0
1.065347071E1,2.662480354E0,-5.475637913E-1,1.878702164E0,3.304262333E0
1.066149669E1,2.461832047E0,-6.685667038E-1,2.010571241E0,3.248075612E0
1.066952267E1,2.108259201E0,-8.522834778E-1,2.117415905E0,3.107184272E0
1.067754865E1,1.738297462E0,-1.104617357E0,2.254329681E0,3.053499613E0
1.068560515E1,1.328821182E0,-1.442067385E0,2.414153814E0,3.110219078E0
1.069363113E1,8.666791916E-1,-1.784282207E0,2.561246395E0,3.239564618E0
1.070165710E1,4.283742905E-1,-2.114088297E0,2.666651011E0,3.429854439E0
1.070968308E1,7.210731506E-3,-2.460005760E0,2.779290676E0,3.711621882E0
1.071770906E1,-4.360198975E-1,-2.798485041E0,2.896765947E0,4.051281875E0
1.072576556E1,-8.386621475E-1,-3.106660128E0,2.950201273E0,4.365590326E0
1.073379154E1,-1.267354012E0,-3.339987278E0,3.020334005E0,4.678046463E0
1.074181752E1,-1.561055183E0,-3.566514254E0,3.047998667E0,4.944412309E0
1.074984350E1,-1.803766727E0,-3.824300289E0,3.071053982E0,5.225918069E0
1.075786948E1,-2.012197971E0,-4.199546814E0,3.066687822E0,5.575814588E0
1.076592598E1,-2.186600685E0,-4.511185646E0,3.002527714E0,5.843559802E0
1.077395196E1,-2.413564682E0,-4.757510662E0,2.928302050E0,6.085569412E0
1.078197794E1,-2.576143742E0,-4.952848911E0,2.803941727E0,6.247344886E0
1.079000392E1,-2.749389172E0,-5.135606766E0,2.692178726E0,6.417275431E0
1.079806041E1,-2.900135040E0,-5.334679127E0,2.548695564E0,6.585243634E0
1.080608639E1,-3.083922386E0,-5.498583794E0,2.396479607E0,6.744487788E0
1.081411237E1,-3.315699577E0,-5.595794678E0,2.223102093E0,6.873788233E0
1.082213835E1,-3.526604176E0,-5.647615433E0,1.998435855E0,6.951707916E0
1.083016433E1,-3.767360687E0,-5.678566456E0,1.724281073E0,7.029386087E0
1.083822083E1,-3.980683804E0,-5.725810051E0,1.401630402E0,7.113038174E0
1.084624681E1,-4.149966240E0,-5.784281254E0,1.123487949E0,7.207104452E0
1.085427279E1,-4.287365437E0,-5.814620495E0,8.978273869E-1,7.279931861E0
1.086229877E1,-4.409849644E0,-5.810925007E0,7.631489038E-1,7.334576986E0
1.087032475E1,-4.484144688E0,-5.738958836E0,6.387485266E-1,7.311032880E0
1.087838124E1,-4.376430988E0,-5.733864784E0,5.848019123E-1,7.236874107E0
1.088640722E1,-4.151518822E0,-5.802436829E0,5.456289649E-1,7.155493878E0
1.089443320E1,-3.799890995E0,-5.992943764E0,4.799632132E-1,7.112307025E0
1.090245918E1,-3.419755936E0,-6.215270996E0,4.005284309E-1,7.105261940E0
1.091048516E1,-2.979869843E0,-6.471014977E0,3.201549053E-1,7.131350382E0
1.091851114E1,-2.674203396E0,-6.688314438E0,3.162105978E-1,7.210055684E0
1.092656764E1,-2.495676041E0,-6.778948307E0,3.140676916E-1,7.230572423E0
1.093459362E1,-2.406146526E0,-6.728490353E0,4.071229994E-1,7.157364925E0
1.094261960E1,-2.343326092E0,-6.648165703E0,5.827718377E-1,7.073111578E0
1.095064558E1,-2.156094551E0,-6.462164402E0,8.019336462E-1,6.859403039E0
1.095867156E1,-1.927975178E0,-6.178396225E0,1.006949425E0,6.550085140E0
1.096669754E1,-1.646436691E0,-5.800070763E0,1.150414467E0,6.137998703E0
1.097475403E1,-1.358777046E0,-5.282150269E0,1.161877513E0,5.576499428E0
1.098278001E1,-1.174478531E0,-4.753371716E0,1.139572859E0,5.027182987E0
1.099080599E1,-1.028362274E0,-4.056880951E0,1.074228525E0,4.320853960E0
1.099883197E1,-9.274482727E-1,-3.294779301E0,1.045188308E0,3.578847515E0
1.100685795E1,-9.183921814E-1,-2.559790611E0,1.055195808E0,2.917089366E0
1.101491445E1,-9.216346741E-1,-1.923565388E0,1.007683039E0,2.359012374E0
1.102294043E1,-8.978567123E-1,-1.493118286E0,9.585288763E-1,1.988548842E0
1.103096641E1,-7.688131332E-1,-1.199818254E0,8.032563925E-1,1.635805095E0
1.103899239E1,-4.505100250E-1,-1.116847277E0,6.394020915E-1,1.363503633E0
1.104701837E1,-6.450843811E-2,-1.125023603E0,4.664718807E-1,1.219604634E0
1.105507486E1,3.468980789E-1,-1.153916359E0,2.945083976E-1,1.240401724E0
1.106310084E1,7.381963730E-1,-1.109386444E0,2.103065848E-1,1.349037074E0
1.107112682E1,1.230761528E0,-1.006972313E0,1.332116425E-1,1.595779596E0
1.107915280E1,1.640229225E0,-8.848338127E-1,1.126949489E-1,1.867078718E0
1.108717878E1,1.953945160E0,-7.260150909E-1,1.227060556E-1,2.088074801E0
1.109523528E1,2.145247459E0,-5.354149342E-1,1.419622600E-1,2.215605808E0
1.110326126E1,2.277260780E0,-3.386156559E-1,1.414747834E-1,2.306640921E0
1.111128724E1,2.342918396E0,-6.670379639E-2,1.047873795E-1,2.346208942E0
1.111931322E1,2.256889343E0,2.597508430E-1,2.254873514E-2,2.271899746E0
1.112733920E1,2.111734390E0,5.151829720E-1,-6.466871500E-2,2.174630468E0
1.113539569E1,1.854145050E0,6.775698662E-1,-1.569575667E-1,1.980300600E0
1.114342167E1,1.629258156E0,7.721610069E-1,-2.101282477E-1,1.815177302E0
1.115144765E1,1.301738739E0,8.006839752E-1,-2.337836325E-1,1.546050892E0
1.115947363E1,1.038698196E0,7.412855625E-1,-2.128994167E-1,1.293725006E0
1.116753013E1,7.597332001E-1,7.170627117E-1,-1.180980206E-1,1.051342290E0
1.117555611E1,5.115051270E-1,6.835055351E-1,-3.904974461E-2,8.546006050E-1
1.118358209E1,3.448190689E-1,7.404501438E-1,1.131997406E-1,8.246094755E-1
1.119160807E1,2.606868744E-1,8.518788815E-1,3.776042461E-1,9.675950816E-1
1.119963405E1,3.097496033E-1,1.016145706E0,6.002398133E-1,1.220157673E0
1.120766003E1,3.464403152E-1,1.222043753E0,7.769465446E-1,1.488978764E0
1.121571652E1,3.777608871E-1,1.449551344E0,8.804883957E-1,1.737573654E0
1.122374250E1,4.312191010E-1,1.678943157E0,8.810828328E-1,1.944506877E0
1.123176848E1,5.451984406E-1,2.029938936E0,8.016029596E-1,2.249546783E0
1.123979446E1,7.137889862E-1,2.440219879E0,7.783035636E-1,2.658932909E0
1.124782044E1,8.406438828E-1,2.611960411E0,7.128723860E-1,2.834996713E0
1.125587694E1,8.726539612E-1,2.673855305E0,5.595241785E-1,2.867768197E0
1.126390292E1,9.268808365E-1,2.738134384E0,4.339635372E-1,2.923151098E0
1.127192890E1,1.033384323E0,2.692645073E0,3.023938239E-1,2.899941840E0
1.127995488E1,1.066190720E0,2.728347778E0,2.624998689E-1,2.941011804E0
1.128798086E1,1.085709572E0,2.870255470E0,2.343239784E-1,3.077667862E0
1.129603735E1,1.205140114E0,3.138645887E0,1.771638393E-1,3.366726559E0
1.130406333E1,1.292023659E0,3.376415253E0,1.415110826E-1,3.617945616E0
1.131208931E1,1.413393021E0,3.595503330E0,7.895217836E-2,3.864137352E0
1.132011529E1,1.599274635E0,3.908936501E0,5.411748588E-2,4.223788895E0
1.132817179E1,1.767590523E0,4.126462936E0,-1.317849755E-2,4.489125337E0
1.133619777E1,1.910172462E0,4.368666649E0,-1.122729629E-1,4.769340871E0
1.134422375E1,1.980140686E0,4.504189968E0,-2.257339954E-1,4.925407622E0
1.135224973E1,2.049523354E0,4.624622822E0,-3.736728728E-1,5.072209936E0
1.136030622E1,2.120147705E0,4.647868633E0,-5.222178698E-1,5.135213786E0
1.136833220E1,2.307450294E0,4.558168411E0,-5.728024244E-1,5.140946289E0
1.137635818E1,2.500000000E0,4.472270012E0,-4.648680091E-1,5.144638114E0
1.138438416E1,2.636676788E0,4.356089115E0,-3.607927859E-1,5.104679059E0
1.139244066E1,2.735033035E0,4.304269791E0,-3.197669685E-1,5.109735321E0
1.140046664E1,2.807205200E0,4.252467155E0,-2.564048469E-1,5.101923303E0
1.140849262E1,2.831486702E0,4.238781929E0,-2.828054130E-1,5.105347009E0
1.141651860E1,2.896162033E0,4.289120674E0,-3.135527670E-1,5.184845805E0
1.142454458E1,2.948067665E0,4.419452190E0,-3.140229583E-1,5.321773298E0
1.143257056E1,2.900958061E0,4.596154213E0,-2.728789747E-1,5.441934781E0
1.144062706E1,3.006387711E0,4.714161396E0,-2.074580789E-1,5.595062429E0
1.144865304E1,3.377016068E0,4.699491501E0,-2.812233381E-2,5.787076011E0
1.145667901E1,3.988688469E0,4.432161331E0,1.245951876E-1,5.963993103E0
1.146470499E1,4.555250168E0,4.109100342E0,2.692374289E-1,6.140643167E0
1.147276149E1,5.174606323E0,3.715600014E0,4.896970093E-1,6.389212567E0
1.148078747E1,5.639901161E0,3.350844145E0,7.752985954E-1,6.605885974E0
1.148881345E1,5.948177338E0,3.083530426E0,1.103007197E0,6.790110338E0
1.149683943E1,6.045168877E0,3.008244753E0,1.385156393E0,6.892913859E0
1.150489593E1,6.041565895E0,3.089958191E0,1.566733360E0,6.964410493E0
1.151292190E1,5.966861725E0,3.293877125E0,1.659839749E0,7.014850914E0
1.152094788E1,5.805915833E0,3.434552908E0,1.652976036E0,6.945296402E0
1.152897386E1,5.587258339E0,3.561954975E0,1.560845613E0,6.807438433E0
1.153699984E1,5.366330147E0,3.695728302E0,1.528074145E0,6.692601700E0
1.154505634E1,5.195932388E0,3.874293089E0,1.479356647E0,6.648034026E0
1.155308232E1,4.906067848E0,4.224480629E0,1.501072049E0,6.645972887E0
1.156110830E1,4.686726570E0,4.631470680E0,1.582661986E0,6.776484750E0
1.156913428E1,4.445291519E0,4.965874672E0,1.677821040E0,6.872816845E0
1.157716026E1,4.289362907E0,5.147074223E0,1.654468536E0,6.901324028E0
1.158521676E1,4.035399437E0,5.054875851E0,1.542724252E0,6.649527547E0
1.159324274E1,3.710313797E0,4.766010284E0,1.333986282E0,6.185531659E0
1.160126872E1,3.411536217E0,4.228127003E0,1.115441084E0,5.546155977E0
1.160929470E1,3.122215271E0,3.522695065E0,9.501662254E-1,4.802127088E0
1.161732068E1,2.883306503E0,2.808569193E0,9.461259842E-1,4.134812170E0
1.162537717E1,2.736950874E0,2.184816599E0,1.067662597E0,3.661178373E0
1.163340315E1,2.634507179E0,1.550991297E0,1.306252003E0,3.324529497E0
1.164142913E1,2.632597923E0,1.048662424E0,1.606379867E0,3.257410165E0
1.164945511E1,2.704413414E0,7.271215916E-1,1.938022494E0,3.405655430E0
1.165748109E1,2.787292480E0,4.567437172E-1,2.255378723E0,3.614463637E0
1.166553759E1,2.943439484E0,2.882347107E-1,2.435187101E0,3.831064012E0
1.167356357E1,3.142385483E0,1.106433868E-1,2.490869045E0,4.011390916E0
1.168158955E1,3.259506226E0,-9.765529633E-2,2.389828205E0,4.042919272E0
1.168961553E1,3.276947021E0,-1.906201839E-1,2.199742079E0,3.951402669E0
1.169764150E1,3.121722221E0,-1.951055527E-1,1.974075079E0,3.698673846E0
1.170569800E1,2.882253647E0,-1.694931984E-1,1.773273349E0,3.388305240E0
1.171372398E1,2.586937904E0,-2.446296215E-1,1.538759112E0,3.019912412E0
1.172174996E1,2.281717300E0,-3.699865341E-1,1.327002048E0,2.665343939E0
1.172977594E1,2.084589958E0,-5.686030388E-1,1.180613518E0,2.462249579E0
1.173780192E1,1.931886673E0,-8.480699062E-1,1.153309941E0,2.404481754E0
1.174582790E1,1.891708374E0,-1.047571421E0,1.145894408E0,2.447251611E0
1.175388440E1,1.865578651E0,-1.192208052E0,1.241488338E0,2.538313817E0
1.176191038E1,1.791199684E0,-1.327847242E0,1.356342673E0,2.609835254E0
1.176993636E1,1.751964569E0,-1.370121479E0,1.428184509E0,2.643165472E0
1.177796234E1,1.652157784E0,-1.496601582E0,1.463505507E0,2.666700209E0
1.178598832E1,1.462858200E0,-1.646822214E0,1.321767688E0,2.568861098E0
1.179401429E1,1.239577293E0,-1.746192217E0,1.103814125E0,2.409179268E0
1.180207079E1,9.992609024E-1,-1.862832785E0,7.767653465E-1,2.252117390E0
1.181009677E1,5.963621140E-1,-1.942033887E0,4.106459022E-1,2.072624772E0
1.181812275E1,1.198215485E-1,-2.090426207E0,1.433598399E-1,2.098759389E0
1.182614873E1,-3.289775848E-1,-2.322801113E0,4.908639938E-2,2.346495416E0
1.183420523E1,-7.876501083E-1,-2.617259502E0,1.083095744E-1,2.735355728E0
1.184223121E1,-1.293993950E0,-2.968326807E0,3.289250731E-1,3.254777424E0
1.185025719E1,-1.668158531E0,-3.304140091E0,6.088602543E-1,3.751107228E0
1.185828317E1,-1.950978756E0,-3.669659138E0,9.450578690E-1,4.262141559E0
1.186630914E1,-2.203086376E0,-3.936218262E0,1.260886788E0,4.683720666E0
1.187433512E1,-2.449321270E0,-4.109693050E0,1.582190275E0,5.039055241E0
1.188239162E1,-2.647436619E0,-4.185996532E0,1.844360709E0,5.285182499E0
1.189041760E1,-2.821734905E0,-4.240474701E0,1.953153133E0,5.455146261E0
1.189844358E1,-2.905396938E0,-4.350864410E0,1.903133273E0,5.567159845E0
1.190646956E1,-2.939385891E0,-4.492448330E0,1.738435268E0,5.643069962E0
1.191449554E1,-2.976438046E0,-4.650807381E0,1.495063901E0,5.720525221E0
1.192255204E1,-3.000004768E0,-4.842489243E0,1.228942156E0,5.827523445E0
1.193057802E1,-3.067865372E0,-5.054584980E0,1.015042186E0,5.999244777E0
1.193860400E1,-3.153981686E0,-5.308365822E0,8.784422874E-1,6.236826839E0
1.194662998E1,-3.304404259E0,-5.539322376E0,7.867355347E-1,6.497856008E0
1.195465596E1,-3.442879677E0,-5.687129498E0,7.749339938E-1,6.693084871E0
1.196271245E1,-3.591723919E0,-5.839609623E0,8.364414573E-1,6.906602317E0
1.197073843E1,-3.576736450E0,-5.913782597E0,9.283984900E-1,6.973363033E0
1.197876441E1,-3.508409977E0,-6.009858131E0,1.034528375E0,7.035451960E0
1.198679039E1,-3.401355743E0,-6.094493389E0,1.103871942E0,7.066159058E0
1.199484689E1,-3.274439812E0,-6.187316895E0,1.126944780E0,7.090476075E0
1.200287287E1,-3.132817745E0,-6.261027336E0,1.036362529E0,7.077362335E0
1.201089885E1,-3.014814377E0,-6.304452896E0,8.321809173E-1,7.037595976E0
1.201892483E1,-2.894004822E0,-6.371240139E0,5.717301965E-1,7.021028431E0
1.202695081E1,-2.901912212E0,-6.428853035E0,2.626473010E-1,7.058344667E0
1.203497679E1,-2.726912975E0,-6.522324562E0,-5.848844349E-2,7.069667104E0
1.204303328E1,-2.544071674E0,-6.798256874E0,-2.945914268E-1,7.264666635E0
1.205105926E1,-2.394289494E0,-7.190214157E0,-4.500333667E-1,7.591727856E0
1.205908524E1,-2.170247078E0,-7.558617115E0,-4.425193667E-1,7.876451515E0
1.206711122E1,-1.920217514E0,-7.809016705E0,-2.916752696E-1,8.046928088E0
1.207516772E1,-1.653980255E0,-7.902222157E0,-3.252279758E-2,8.073526084E0
1.208319370E1,-1.338697433E0,-7.849340439E0,2.491512895E-1,7.966575959E0
1.209121968E1,-9.950027466E-1,-7.663951874E0,4.186690748E-1,7.739604162E0
1.209924566E1,-5.400972366E-1,-7.391999722E0,4.744821191E-1,7.426876745E0
1.210727164E1,-7.476329803E-2,-6.953467369E0,4.037275314E-1,6.965579224E0
1.211529762E1,3.003091812E-1,-6.319525242E0,3.115074933E-1,6.334320943E0
1.212335411E1,4.805517197E-1,-5.556652069E0,1.830786765E-1,5.580396937E0
1.213138009E1,5.648555756E-1,-4.751372337E0,1.774842292E-2,4.784863208E0
1.213940607E1,5.535669327E-1,-3.994400024E0,-1.260790229E-1,4.034546297E0
1.214743205E1,4.990549088E-1,-3.382727623E0,-2.650274932E-1,3.429597869E0
1.215548855E1,4.708070755E-1,-2.801863432E0,-4.057809412E-1,2.869974942E0
1.216351453E1,5.644321442E-1,-2.463605881E0,-5.322071910E-1,2.582863155E0
1.217154051E1,7.077665329E-1,-2.254836559E0,-6.524859667E-1,2.451725782E0
1.217956649E1,8.621578217E-1,-2.135396957E0,-7.784650922E-1,2.430893699E0
1.218759247E1,9.696168900E-1,-2.004005432E0,-8.066399097E-1,2.367881464E0
1.219564896E1,1.061181068E0,-1.915618420E0,-7.875406742E-1,2.327212819E0
1.220367494E1,1.170125008E0,-1.860391498E0,-6.639078856E-1,2.295870802E0
1.221170092E1,1.310875893E0,-1.824622750E0,-5.478796959E-1,2.312534529E0
1.221972690E1,1.447751045E0,-1.720286250E0,-4.938228130E-1,2.302005396E0
1.222775288E1,1.611634254E0,-1.560436010E0,-3.928801119E-1,2.277428439E0
1.223580938E1,1.852788925E0,-1.455140591E0,-3.011335731E-1,2.375066814E0
1.224383536E1,2.063035011E0,-1.286365509E0,-1.640055180E-1,2.436749370E0
1.225186134E1,2.301642418E0,-1.060667038E0,-2.229980379E-2,2.534377570E0
1.225988732E1,2.417323112E0,-8.555984497E-1,1.589573026E-1,2.569195820E0
1.226791330E1,2.408349037E0,-7.141406536E-1,3.113607168E-1,2.531222522E0
1.227596979E1,2.217621803E0,-5.473721027E-1,4.427403212E-1,2.326688994E0
1.228399577E1,1.937622070E0,-3.590681553E-1,4.958547950E-1,2.032038682E0
1.229202175E1,1.709993362E0,-1.804265976E-1,5.761039853E-1,1.813429585E0
1.230004773E1,1.480428696E0,-1.187098026E-1,6.910433769E-1,1.638078780E0
1.230807371E1,1.309293747E0,-5.954289436E-2,7.849907279E-1,1.527745370E0
1.231609969E1,1.151848793E0,1.352572441E-2,9.085843563E-1,1.467127847E0
1.232415619E1,1.085513115E0,1.598994732E-1,1.071371913E0,1.533539807E0
1.233218217E1,1.074844360E0,3.660171032E-1,1.298074722E0,1.724603405E0
1.234020815E1,1.031716347E0,5.629768372E-1,1.482420444E0,1.891811807E0
1.234823413E1,1.015788078E0,6.853818893E-1,1.659673452E0,2.063029259E0
1.235626011E1,1.008320808E0,8.510870934E-1,1.805817485E0,2.236523392E0
1.236431660E1,1.007794380E0,1.059119701E0,1.934536457E0,2.424833058E0
1.237234258E1,1.132163048E0,1.336463213E0,2.041158438E0,2.689657014E0
1.238036856E1,1.272141457E0,1.616924047E0,2.138077259E0,2.967180754E0
1.238839454E1,1.382177353E0,1.846989155E0,2.184237957E0,3.176897642E0
1.239642052E1,1.593914032E0,2.018764019E0,2.136067390E0,3.343464371E0
1.240447702E1,1.903828621E0,2.317982674E0,2.091740131E0,3.656909060E0
1.241250300E1,2.259368896E0,2.676922560E0,1.984300137E0,4.025929611E0
1.242052898E1,2.694048882E0,3.092236996E0,1.871999383E0,4.508238093E0
1.242855496E1,3.148128510E0,3.490710974E0,1.760857105E0,5.019600976E0
1.243658094E1,3.789984703E0,3.970601082E0,1.671394587E0,5.737875640E0
1.244463743E1,4.313603878E0,4.422021866E0,1.543871164E0,6.367495110E0
1.245266341E1,4.651047230E0,4.855830193E0,1.410151124E0,6.870214945E0
1.246068939E1,4.787883759E0,5.293903828E0,1.252609849E0,7.246949707E0
1.246871537E1,4.794874668E0,5.666101456E0,1.174694777E0,7.515014079E0
1.247677187E1,4.711212635E0,5.962232590E0,1.056968927E0,7.672087412E0
1.248479785E1,4.660048485E0,6.176793575E0,9.342837334E-1,7.793697251E0
1.249282383E1,4.635615349E0,6.285548687E0,8.399363756E-1,7.855096758E0
1.250084981E1,4.753983021E0,6.278086185E0,7.761343122E-1,7.913097067E0
1.250887579E1,4.957594395E0,6.286345959E0,7.537159324E-1,8.041391385E0
1.251693229E1,5.202403069E0,6.276320457E0,7.892547846E-1,8.190245374E0
1.252495826E1,5.343785286E0,6.328791618E0,8.875854611E-1,8.330513338E0
1.253298424E1,5.565326214E0,6.386147022E0,1.065979481E0,8.537683638E0
1.254101022E1,5.709260941E0,6.449271202E0,1.262133837E0,8.705270895E0
1.254906672E1,5.865324974E0,6.464781761E0,1.443677187E0,8.847578431E0
1.255709270E1,5.977628231E0,6.465478897E0,1.586870313E0,8.947212640E0
1.256511868E1,6.169252396E0,6.450389385E0,1.695605040E0,9.085277915E0
1.257317518E1,6.400840759E0,6.310986996E0,1.782104731E0,9.163799242E0
1.258120116E1,6.667805195E0,6.076209068E0,1.859353781E0,9.210707858E0
1.258922714E1,6.869280338E0,5.841561794E0,1.911355972E0,9.217599374E0
1.259725311E1,7.085589409E0,5.490876198E0,1.996268749E0,9.183702282E0
1.260530961E1,7.242601871E0,5.225504875E0,2.115429401E0,9.178029452E0
1.261333559E1,7.310423851E0,5.094629288E0,2.192898989E0,9.176401824E0
1.262136157E1,7.263187885E0,5.094079971E0,2.312834501E0,9.168028820E0
1.262938755E1,7.182413578E0,5.133066177E0,2.397271872E0,9.147805508E0
1.263744405E1,7.005120754E0,5.201331615E0,2.418982029E0,9.054117373E0
1.264547003E1,6.743698597E0,5.246265888E0,2.343339205E0,8.859571952E0
1.265349601E1,6.423020363E0,5.390866280E0,2.234700680E0,8.678163225E0
1.266152199E1,5.994445801E0,5.540789604E0,2.088192225E0,8.425810149E0
1.266954797E1,5.551733494E0,5.626537323E0,1.921257734E0,8.134549669E0
1.267760446E1,5.149022102E0,5.721050739E0,1.741123676E0,7.891410636E0
1.268563044E1,4.693876743E0,5.664092064E0,1.519772768E0,7.511599501E0
1.269365642E1,4.365127087E0,5.473482609E0,1.250198841E0,7.111704683E0
1.270168240E1,4.130157948E0,5.202183723E0,1.028105497E0,6.721452304E0
1.270970838E1,4.000310421E0,4.856238365E0,8.680047989E-1,6.351296470E0
1.271776488E1,3.945441246E0,4.362051964E0,7.336456776E-1,5.927245561E0
1.272579086E1,3.969391823E0,3.809478283E0,7.313706279E-1,5.550053984E0
1.273381684E1,4.007346153E0,3.243597984E0,8.005186319E-1,5.217334679E0
1.274184282E1,4.051797867E0,2.714423895E0,9.343066812E-1,4.965691494E0
1.274989931E1,4.135858059E0,2.260110378E0,1.103605509E0,4.840595617E0
1.275792529E1,4.255207062E0,1.799898624E0,1.343172550E0,4.811500254E0
1.276595127E1,4.455910683E0,1.432755470E0,1.565407038E0,4.935425761E0
1.277397725E1,4.624383450E0,1.194023132E0,1.759929419E0,5.089986747E0
1.278200323E1,4.747438908E0,1.060812950E0,1.855368137E0,5.206331839E0
1.279005973E1,4.839425087E0,1.006913662E0,1.861700416E0,5.282029793E0
1.279808571E1,4.826233387E0,9.981217384E-1,1.800794482E0,5.247059794E0
1.280611169E1,4.711613655E0,1.008817673E0,1.690518856E0,5.106355876E0
1.281413767E1,4.516798973E0,9.926953316E-1,1.573019505E0,4.884803716E0
1.282219416E1,4.202566147E0,9.574332237E-1,1.454545140E0,4.549059481E0
1.283022014E1,3.890457153E0,8.693242073E-1,1.383351207E0,4.219602114E0
1.283824612E1,3.596622467E0,7.699508667E-1,1.342882037E0,3.915590591E0
1.284627210E1,3.296886444E0,5.857410431E-1,1.314820647E0,3.597402692E0
1.285432860E1,3.029699326E0,3.141822815E-1,1.311126709E0,3.316148633E0
1.286235458E1,2.874646187E0,1.044263840E-1,1.431727648E0,3.213151043E0
1.287038056E1,2.787196159E0,-1.304578781E-1,1.658292055E0,3.245830283E0
1.287840654E1,2.750192642E0,-3.457412720E-1,1.949155450E0,3.388554790E0
1.288646303E1,2.619496346E0,-5.878939629E-1,2.348212242E0,3.566718541E0
1.289448901E1,2.473228455E0,-8.372721672E-1,2.774655819E0,3.810065430E0
1.290251499E1,2.279501915E0,-1.124584913E0,3.112192154E0,4.018278264E0
1.291054097E1,2.036686897E0,-1.403043270E0,3.342935085E0,4.158345695E0
1.291856695E1,1.735548973E0,-1.679598570E0,3.486412525E0,4.241256169E0
1.292662345E1,1.343210220E0,-1.907788754E0,3.567425251E0,4.262674577E0
1.293464943E1,8.983364105E-1,-2.163615465E0,3.564143896E0,4.265133280E0
1.294267541E1,4.421291351E-1,-2.331314802E0,3.566175699E0,4.283470088E0
1.295070139E1,1.195240021E-2,-2.545460701E0,3.490331173E0,4.319944992E0
1.295875788E1,-2.865839005E-1,-2.685235262E0,3.460001945E0,4.389103804E0
1.296678386E1,-6.472597122E-1,-2.852414608E0,3.451875210E0,4.524450983E0
1.297480985E1,-8.927001953E-1,-2.973537445E0,3.492946625E0,4.673276656E0
1.298283582E1,-1.075638771E0,-3.123982906E0,3.568845749E0,4.863427592E0
1.299089232E1,-1.179144859E0,-3.284333229E0,3.667538881E0,5.062417289E0
1.299891830E1,-1.199122429E0,-3.407589912E0,3.721656322E0,5.186548890E0
1.300694428E1,-1.131464958E0,-3.535344124E0,3.766193867E0,5.288013546E0
1.301497026E1,-1.019335747E0,-3.596800804E0,3.839929104E0,5.359204877E0
1.302302676E1,-9.445838928E-1,-3.592728138E0,3.871373415E0,5.365395262E0
1.303105274E1,-9.509620667E-1,-3.609422445E0,3.886866093E0,5.388876252E0
1.303907872E1,-9.672136307E-1,-3.645520449E0,3.886937141E0,5.416050396E0
1.304710470E1,-1.029495239E0,-3.727398396E0,3.865552425E0,5.467710197E0
1.305516119E1,-1.159423828E0,-3.846689463E0,3.838688612E0,5.556690894E0
1.306318717E1,-1.287770271E0,-3.909167290E0,3.850844383E0,5.636394560E0
1.307121315E1,-1.376267433E0,-3.933864594E0,3.817639351E0,5.651882244E0
1.307926965E1,-1.439468384E0,-3.982485533E0,3.794195890E0,5.685787782E0
1.308729563E1,-1.398599625E0,-4.009682655E0,3.754209518E0,5.668132410E0
1.309532161E1,-1.392870903E0,-3.989083290E0,3.687293768E0,5.607941706E0
1.310334759E1,-1.341317177E0,-3.935922861E0,3.606698990E0,5.504443491E0
1.311140408E1,-1.229824066E0,-3.872684240E0,3.531343460E0,5.383357418E0
1.311943006E1,-1.159137726E0,-3.866596460E0,3.497420311E0,5.340984674E0
1.312745604E1,-1.124650002E0,-3.861421585E0,3.356118917E0,5.238219972E0
1.313551254E1,-1.083651543E0,-3.979250193E0,3.155836105E0,5.193075609E0
1.314353852E1,-1.043494225E0,-4.192437649E0,2.867303133E0,5.185252250E0
1.315156450E1,-1.044751167E0,-4.457099915E0,2.587015152E0,5.258316465E0
1.315959048E1,-1.156667709E0,-4.719949245E0,2.337654591E0,5.392627380E0
1.316764698E1,-1.276093483E0,-5.066818237E0,2.096497059E0,5.629952180E0
1.317567295E1,-1.288160324E0,-5.393388748E0,1.904156089E0,5.862918183E0
1.318369893E1,-1.348367691E0,-5.711280346E0,1.807206631E0,6.140261755E0
1.319172491E1,-1.480687141E0,-5.938144684E0,1.784650564E0,6.374870535E0
1.319978141E1,-1.627978325E0,-6.090114594E0,1.768381000E0,6.547288030E0
1.320780739E1,-1.819090843E0,-6.255677700E0,1.822741508E0,6.764982010E0
1.321583337E1,-2.071201801E0,-6.231353760E0,1.917000413E0,6.840653270E0
1.322385935E1,-2.324756145E0,-6.078645229E0,1.976876974E0,6.801651383E0
