"Time (s)","Linear Acceleration x (m/s^2)","Linear Acceleration y (m/s^2)","Linear Acceleration z (m/s^2)","Absolute acceleration (m/s^2)"
2.056595833E-2,-1.246984519E0,6.158025862E-1,-2.121959238E0,2.537103511E0
3.061795834E-2,-5.028510444E-1,6.756681342E-1,-1.981125541E0,2.152729665E0
4.066895833E-2,5.379561192E-1,3.998741215E-1,-1.141485838E0,1.323739407E0
5.072095833E-2,1.386417808E0,7.385567841E-2,-1.305940533E-1,1.394512032E0
6.077195833E-2,1.440942948E0,-3.569775588E-1,6.369635135E-1,1.615386045E0
7.082395833E-2,1.049023306E0,-6.924610452E-1,1.404908166E0,1.885131070E0
8.087495834E-2,4.405382904E-1,-6.631749002E-1,2.471599345E0,2.596666759E0
9.092695834E-2,9.039517656E-2,-1.698095014E-1,3.439516434E0,3.444891850E0
1.009779583E-1,1.877146990E-1,3.501005023E-1,3.752603842E0,3.773571619E0
1.110299583E-1,4.049977443E-1,5.826165676E-1,3.286317045E0,3.362044759E0
1.210809583E-1,5.953137599E-1,5.349039092E-1,2.076706467E0,2.225585409E0
1.311329583E-1,-3.348163191E-2,3.751000170E-1,9.338810313E-1,1.006953238E0
1.411839583E-1,-6.402637551E-1,-4.462657113E-2,1.732144082E-1,6.647799923E-1
1.512359583E-1,-4.584899734E-1,-6.861092149E-1,-4.252247250E-1,9.283183598E-1
1.612869583E-1,2.297200730E-1,-1.173453590E0,-1.139455100E0,1.651702929E0
1.713389583E-1,8.395622268E-2,-2.361691498E-1,-1.528086780E0,1.548506933E0
1.813899583E-1,-1.919086875E-1,4.524994279E-1,-2.460924084E0,2.509528247E0
1.914419583E-1,-2.216679454E-2,5.478287408E-1,-2.183704666E0,2.251482570E0
2.014929583E-1,-9.148129687E-2,7.183158249E-1,-1.623461884E0,1.777631835E0
2.115449583E-1,2.430979908E-2,7.642033846E-1,-1.259784951E0,1.473653929E0
2.215969583E-1,3.492746562E-2,9.214991867E-1,-7.980794477E-1,1.219553805E0
2.316479583E-1,5.452850193E-2,1.380159533E0,9.879449719E-1,1.698189908E0
2.416999583E-1,-4.391334969E-1,1.836915953E0,1.003697956E0,2.138809957E0
2.517509583E-1,-1.424051365E-1,1.609119834E0,8.554330319E-1,1.827925473E0
2.618029583E-1,1.194989616E0,1.003778647E0,1.603731624E0,2.237750406E0
2.718539583E-1,1.479039751E0,5.213887645E-1,2.298609470E0,2.782626515E0
2.819059583E-1,1.057934389E0,-4.268587294E-1,2.460935193E0,2.712496188E0
2.919569583E-1,8.104237971E-1,-1.298786172E0,2.695191025E0,3.099626899E0
3.020089583E-1,-4.610617250E-2,-1.576810020E0,2.774317301E0,3.191440444E0
3.120599583E-1,-1.326587051E0,-1.110634613E0,2.393688705E0,2.953487441E0
3.221119583E-1,-2.435003377E0,-6.339627224E-1,1.271077094E0,2.819004639E0
3.321629583E-1,-2.959069143E0,-9.146331668E-1,-7.512315559E-1,3.187003745E0
3.422149583E-1,-3.228929547E0,-1.785618331E0,-2.236858780E0,4.314852957E0
3.522659583E-1,-3.740855032E0,-2.429699513E0,1.365513720E0,4.664982724E0
3.623179583E-1,-1.927298997E0,-1.614761081E0,-1.398427697E0,2.877070523E0
3.723689583E-1,-1.150683216E0,-1.430499967E0,-9.928969789E-1,2.087162291E0
3.824209583E-1,5.145812899E-2,-1.854197253E0,-1.703415542E0,2.518396295E0
3.924719583E-1,5.634531954E-1,-2.269996413E0,-2.192771358E0,3.206027050E0
4.025239583E-1,9.475386652E-1,-3.022780404E0,-1.605967015E0,3.551642007E0
4.125749583E-1,1.519577327E0,-3.355112753E0,-9.588088810E-2,3.684438897E0
4.226266250E-1,-1.460287730E0,-1.725362335E0,1.613013495E0,2.776891783E0
4.326776250E-1,-5.083002693E0,4.448894960E-1,3.910144204E-1,5.117395365E0
4.427296250E-1,-2.083713770E0,-5.422542612E-1,-2.529517186E0,3.321800709E0
4.527806250E-1,4.319811827E-1,-9.672871245E-1,-3.805365023E0,3.950070263E0
4.628326250E-1,-1.583518969E0,-1.437065805E0,-1.779594237E0,2.782021945E0
4.728836250E-1,-2.468344785E0,-2.353959798E0,6.122929412E-1,3.465365111E0
4.829356250E-1,-1.990521432E0,-2.919875548E0,2.208199237E0,4.167012438E0
4.929866250E-1,-2.311160519E0,-3.636609702E0,3.339133190E0,5.451257059E0
5.030386250E-1,-4.726479828E0,-5.442760237E0,2.801442534E0,7.733778562E0
5.130896250E-1,-6.688070991E0,-6.873692606E0,2.007733880E0,9.798415125E0
5.231416250E-1,-5.281084140E0,-6.210432994E0,1.191853754E0,8.238922444E0
5.331926250E-1,-3.100056914E0,-5.048246843E0,8.015971327E-1,5.978102293E0
5.432446250E-1,-1.446722775E0,-3.289433026E0,1.935754071E0,4.081730055E0
5.532956250E-1,7.901734275E-1,-1.467345904E0,2.000804345E0,2.603976973E0
5.633476250E-1,3.749415940E0,1.110602599E0,8.586121631E-1,4.003594993E0
5.733986250E-1,7.165583273E0,4.826869212E0,-2.327971848E0,8.947832305E0
5.834506250E-1,9.531335735E0,8.364916785E0,-4.644220029E0,1.350507214E1
5.935016250E-1,1.338593256E1,1.190531231E1,-1.149194807E1,2.128343304E1
6.035536250E-1,1.057797564E1,1.051477075E1,-9.142688268E0,1.749407675E1
6.136046250E-1,3.257817716E0,5.054277077E0,-4.826385647E0,7.710583081E0
6.236566250E-1,5.725500011E-1,4.787519205E0,-4.627573006E0,6.683007225E0
6.337076250E-1,-1.176456866E0,5.190622451E0,-3.906466598E0,6.602052216E0
6.437596250E-1,-2.851857228E0,4.890730455E0,-3.128766158E0,6.468501504E0
6.538106250E-1,-4.283443900E0,2.856779999E0,-3.279348918E0,6.104360157E0
6.638626250E-1,-5.406776472E0,4.159001702E-1,-2.518206916E0,5.978927232E0
6.739136250E-1,-5.703705685E0,-1.443257715E0,-1.082948778E0,5.982309706E0
6.839656250E-1,-5.111099149E0,-1.861315507E0,-1.279193176E0,5.587858723E0
6.940166250E-1,-5.193649555E0,1.441286033E-1,-3.175714037E0,6.089329060E0
7.040686250E-1,-5.286245477E0,1.450935693E0,-1.968268098E0,5.824404256E0
7.141196250E-1,-6.334633702E-1,-2.423343444E-1,4.036701339E0,4.093282238E0
7.241716250E-1,4.130505297E0,-4.411435942E0,4.173625004E0,7.344452787E0
7.342226250E-1,8.465645599E-1,-4.515907559E0,3.218302233E0,5.609595520E0
7.442746250E-1,-3.545716488E0,-1.934492826E-2,7.506456649E0,8.301769153E0
7.543256250E-1,-3.727194182E0,6.677954723E0,1.295815143E1,1.504661903E1
7.643776250E-1,6.086293098E0,8.533316011E0,2.441928819E0,1.076213093E1
7.744286250E-1,5.257619848E0,5.132882951E0,-1.515288512E1,1.684039730E1
7.844806250E-1,2.537986878E-1,4.852200227E0,-1.063151509E1,1.168919903E1
7.945316250E-1,-1.132559771E0,4.390913385E0,-6.008592957E0,7.527682333E0
8.045836250E-1,-2.298435223E-1,4.681343417E0,-3.346110088E0,5.758841632E0
8.146346250E-1,1.676887894E-1,3.328825718E-1,1.271081772E0,1.324605303E0
8.246866250E-1,-5.240414416E0,-6.113468617E0,2.314718403E0,8.378207629E0
8.347376250E-1,-6.021054543E0,-9.817715986E0,1.603277588E0,1.162803268E1
8.447896250E-1,-1.755457515E0,-8.555369369E0,2.242895007E0,9.017014702E0
8.548406250E-1,2.654658126E0,-5.078612019E0,4.961176832E-1,5.752012044E0
8.648926250E-1,5.029398344E0,-3.514896984E0,-1.800512066E0,6.394622132E0
8.749436250E-1,5.632156230E0,-3.216557423E0,-2.425212214E0,6.924527402E0
8.849956250E-1,4.854474794E0,-2.825564053E0,-5.950046249E-1,5.648342080E0
8.950466250E-1,3.114052517E0,-2.561541216E0,1.417138348E0,4.274002525E0
9.050986250E-1,9.721396556E-1,-2.366645333E0,8.639038201E-1,2.700443566E0
9.151496250E-1,-7.064325285E-1,-2.686188651E0,-1.128316228E0,2.997958288E0
9.252016250E-1,5.572875988E-1,-4.071105772E0,-3.339593951E0,5.295031579E0
9.352526250E-1,2.523558581E0,-2.527615671E0,-2.998114218E0,4.663247554E0
9.453046250E-1,1.819177840E0,-7.942822659E-1,-2.090899998E0,2.883080841E0
9.553556250E-1,-5.123251417E-1,3.758881413E0,-1.519921728E0,4.086787074E0
9.654076250E-1,-1.883904471E0,6.898882411E0,9.733380425E-1,7.217413770E0
9.754586250E-1,-2.808665600E0,6.726760848E0,1.602635272E0,7.463668921E0
9.855106250E-1,-2.977476762E0,5.725644438E0,3.232986345E0,7.218072652E0
9.955616250E-1,-1.772023554E0,5.293607122E0,3.244111258E0,6.456516219E0
1.005613625E0,-7.833655143E-1,4.754357598E0,1.073179323E0,4.936526265E0
1.015664625E0,-5.175499213E-1,3.389658396E0,-1.290576535E0,3.663772612E0
1.025716625E0,-2.080193161E0,1.515662616E0,-1.629946446E0,3.046499987E0
1.035767625E0,-2.901770230E0,-8.309770525E-1,-1.299845249E0,3.286394833E0
1.045819625E0,-1.247966267E0,-4.254280327E0,-3.674314302E0,5.758203409E0
1.055870625E0,3.127890538E0,-5.210851479E0,-5.568489407E0,8.242860343E0
1.065922625E0,5.112817061E0,-5.013642436E0,-1.929239688E0,7.416163061E0
1.075973625E0,6.023375888E0,-4.164269459E0,6.586071284E-1,7.352275876E0
1.086025625E0,5.719839322E0,-3.188548091E0,5.278024292E-1,6.569777485E0
1.096077625E0,3.589906821E0,-2.404686148E0,-4.351016955E-1,4.342724944E0
1.106128625E0,2.427963621E0,-1.236736397E0,1.728591460E0,3.226848725E0
1.116180625E0,1.771704589E0,-2.658074069E-1,3.666005409E0,4.080341454E0
1.126231625E0,6.320512676E-1,2.072229838E-1,1.144987151E-1,6.749371272E-1
1.136283625E0,-3.570399047E-1,-9.188332218E-1,-4.913624643E0,5.011530616E0
1.146334625E0,-1.125548083E0,-1.303167783E0,-5.467275274E0,5.732033119E0
1.156386625E0,-7.907560294E-1,9.955785120E-1,1.800570538E0,2.204206418E0
1.166437625E0,2.601228900E-1,2.352464665E0,4.925617282E0,5.464746978E0
1.176489625E0,-2.073808587E-1,2.349786056E0,5.476385236E-1,2.421654245E0
1.186540625E0,-1.380003851E0,2.916013463E0,-6.836987002E-1,3.297724830E0
1.196592625E0,-2.528169402E0,1.212700247E0,4.180513608E-1,2.834969022E0
1.206643625E0,-2.667808514E0,5.509889781E-2,-4.642108015E0,5.354381848E0
1.216695625E0,-1.273413934E0,4.887575882E0,2.073898780E0,5.459948461E0
1.226746625E0,-1.278316093E-1,5.254844760E0,8.036475173E0,9.602846848E0
1.236798625E0,6.982434299E-1,4.468452142E0,8.106204389E0,9.282518949E0
1.246849625E0,1.557196559E0,3.685615216E0,5.671882213E0,6.941099948E0
1.256901625E0,2.388105783E0,3.613538927E0,2.353919452E0,4.929670334E0
1.266952625E0,1.693970827E0,-1.912210257E0,2.898779379E0,3.863807334E0
1.277004625E0,-1.525537628E1,-5.043172980E1,5.095494685E0,5.293439281E1
1.287055625E0,-1.273107715E1,-5.229117245E1,-4.877835006E-1,5.382086003E1
1.297107625E0,7.846904933E0,-6.300209389E0,-4.561379017E0,1.104865304E1
1.307158625E0,8.152795004E0,7.666941084E0,-6.762445235E-1,1.121192930E1
1.317210625E0,6.564296545E0,1.228635898E1,4.058388662E-1,1.393590009E1
1.327261625E0,6.136378008E0,1.429765264E1,4.222964394E-1,1.556458610E1
1.337313625E0,4.343206244E0,1.561761831E1,8.302707088E-1,1.623153694E1
1.347364625E0,2.005221332E0,1.593855093E1,1.838350568E0,1.616903989E1
1.357416625E0,-9.626706746E-1,1.384024601E1,2.785081440E0,1.415047078E1
1.367467625E0,-1.941253085E0,1.025002403E1,2.195906636E0,1.066083777E1
1.377519625E0,-5.452856040E-1,8.477042407E0,9.909744143E-1,8.552170172E0
1.387570625E0,9.194150198E-1,6.739259856E0,6.392467598E-2,6.801987485E0
1.397622625E0,1.252111065E0,4.809374635E0,-7.920287490E-2,4.970325905E0
1.407673625E0,5.028520676E-1,2.383420410E0,4.056938918E-1,2.469441351E0
1.417725625E0,-9.527210525E-1,-3.291193038E-1,9.777521056E-1,1.404277786E0
1.427774250E0,-2.360648428E0,-2.249639624E0,1.131257889E0,3.451562523E0
1.437826250E0,-2.571397868E0,-2.061273910E0,4.019211587E-1,3.320011709E0
1.447877250E0,-1.556022730E0,-7.594971800E-1,-7.796946323E-1,1.898938236E0
1.457929250E0,-1.246178773E0,2.320759892E-2,-1.425927152E0,1.893876545E0
1.467980250E0,-9.595912385E-1,1.833444169E0,-1.923657351E0,2.825383243E0
1.478032250E0,-1.399476980E0,1.976727850E0,-2.333070620E0,3.362916491E0
1.488083250E0,-2.670373980E0,-1.637512743E-1,-2.372482608E0,3.575805559E0
1.498135250E0,-3.968216411E0,-2.773781111E0,-1.548080750E0,5.083026376E0
1.508186250E0,-4.724026921E0,-5.486648853E0,-1.547828150E-1,7.241802518E0
1.518238250E0,-3.915145035E0,-6.769517443E0,1.025149051E0,7.887056335E0
1.528289250E0,-1.283384021E0,-7.247580532E0,-6.062393188E-2,7.360582407E0
1.538341250E0,2.823339772E-1,-7.026120163E0,-1.343609465E0,7.159005756E0
1.548392250E0,4.285447741E-1,-5.972553059E0,-1.736978559E0,6.234752215E0
1.558444250E0,-2.242635244E-1,-4.668859611E0,-1.710951433E0,4.977539453E0
1.568495250E0,-1.455816949E0,-3.158382890E0,-1.059769245E0,3.635642491E0
1.578547250E0,-1.783721786E0,-1.558055515E0,-1.669385916E0,2.897593783E0
1.588598250E0,-6.915648133E-1,-3.858542526E-1,-2.744770736E0,2.856730961E0
1.598650250E0,1.561859421E0,1.187142068E0,-1.959940932E0,2.773099276E0
1.608701250E0,3.734359944E0,2.779899053E0,-1.311152595E0,4.836569452E0
1.618753250E0,4.349519191E0,3.697586805E0,-2.276129557E0,6.145830386E0
1.628804250E0,2.258406647E0,3.416316437E0,-3.342879793E0,5.286441515E0
1.638856250E0,2.330841954E-1,3.224791473E0,-3.871272207E0,5.043843453E0
1.648907250E0,-2.323943555E0,4.457913120E0,-1.149346250E-1,5.028609450E0
1.658959250E0,-4.269440988E0,6.003956115E0,7.973574336E0,1.085603533E1
1.669010250E0,-2.771885444E0,7.105176272E0,1.023144976E1,1.276124771E1
1.679062250E0,1.546736475E0,9.058882465E0,9.033945259E0,1.288673396E1
1.689113250E0,6.482388164E0,1.001206808E1,1.053188555E1,1.591174022E1
1.699165250E0,8.473408948E0,8.807139366E0,1.065248788E1,1.621233669E1
1.709216250E0,7.492350826E0,6.526518854E0,9.907905779E0,1.403201219E1
1.719268250E0,5.524692008E0,3.091343978E0,7.013607706E0,9.448244410E0
1.729320250E0,2.214343491E0,-3.033036713E0,-2.275945370E0,4.391190741E0
1.739371250E0,-2.417871912E0,-8.965542192E0,-1.140189043E1,1.470476646E1
1.749423250E0,-3.771021110E0,-1.169370157E1,-8.210469600E0,1.477751900E1
1.759474250E0,-5.952440976E0,-1.482499080E1,-4.953920145E0,1.672582526E1
1.769526250E0,-1.150667721E1,-1.938942558E1,-3.712275888E0,2.285026120E1
1.779577250E0,-1.545960432E1,-2.307918004E1,-5.571320629E0,2.833174069E1
1.789629250E0,-1.461285850E1,-2.384837190E1,-5.563749654E0,2.851728925E1
1.799680250E0,-1.004122814E1,-2.185159921E1,-2.443843782E0,2.417211251E1
1.809732250E0,-4.952762396E0,-1.934761331E1,2.688467896E-1,1.997328903E1
1.819783250E0,-1.969595124E-1,-1.796666001E1,-3.904080641E-1,1.797198051E1
1.829835250E0,2.851815712E0,-1.745366273E1,-2.972047330E0,1.793310517E1
1.839886250E0,5.088586199E0,-1.703182706E1,-5.613074427E0,1.864090789E1
1.849938250E0,5.944783462E0,-1.532445763E1,-5.851688772E0,1.744768505E1
1.859989250E0,4.862245744E0,-1.097953435E1,-4.100775129E0,1.268889139E1
1.870041250E0,3.063953281E0,-5.555950638E0,-2.275200727E0,6.740395801E0
1.880092250E0,2.154521213E0,-1.673443884E-1,-6.684851953E-1,2.262042939E0
1.890144250E0,2.170549015E0,5.690363508E0,8.909402490E-1,6.155103119E0
1.900195250E0,2.190928316E0,1.049235136E1,2.344359255E-1,1.072122027E1
1.910247250E0,3.541180511E0,1.319459529E1,-2.375578709E0,1.386653088E1
1.920298250E0,4.404106165E0,1.415936365E1,-2.894516759E0,1.510834066E1
1.930350250E0,4.298925280E0,1.405023590E1,-1.386724495E0,1.475848543E1
1.940401250E0,3.549451982E0,1.297201518E1,2.421308613E-1,1.345103768E1
1.950453250E0,2.427764524E0,1.160823282E1,8.262677050E-1,1.188813813E1
1.960504250E0,1.558701193E0,9.913867600E0,-1.434778265E-1,1.003667804E1
1.970556250E0,5.168641891E-1,7.289046062E0,-2.018096316E0,7.580900594E0
1.980607250E0,-3.388771373E-1,5.499602775E0,-3.592735119E0,6.577857860E0
1.990659250E0,-1.087552144E0,5.285998725E0,-3.464061291E0,6.412820972E0
2.000710250E0,-1.113143361E0,6.417396362E0,-2.374965920E0,6.932714283E0
2.010762250E0,-1.683806612E-1,7.765772477E0,-2.123955477E0,8.052748667E0
2.020813250E0,1.288399909E0,8.786989861E0,-5.785375500E-1,8.899768021E0
2.030865250E0,2.776362072E0,9.434680676E0,1.671955183E0,9.975811744E0
2.040916250E0,3.707677638E0,9.822430011E0,3.386663744E0,1.103161349E1
2.050968250E0,4.115330603E0,1.050747342E1,5.012970006E0,1.234798818E1
2.061019250E0,4.596792094E0,1.096474791E1,5.158907154E0,1.296034403E1
2.071071250E0,5.210812887E0,1.096118578E1,3.729887409E0,1.269693762E1
2.081122250E0,5.160687631E0,1.054559376E1,2.006908400E0,1.191091625E1
2.091174250E0,4.439949304E0,9.861135070E0,8.372850287E-1,1.084694339E1
2.101225250E0,3.613265570E0,9.115016904E0,6.180887014E-2,9.805255814E0
2.111277250E0,2.763057025E0,8.490777517E0,-3.424817996E-1,8.935607464E0
2.121328250E0,2.063518364E0,8.223426445E0,-6.394735039E-1,8.502457110E0
2.131380250E0,1.538668925E0,8.248109881E0,-9.774895656E-1,8.447147715E0
2.141431250E0,1.367028441E0,8.484861889E0,-1.226693073E0,8.681383756E0
2.151483250E0,1.459956193E0,8.668135262E0,-1.362735708E0,8.895228475E0
2.161534250E0,1.788766179E0,8.678799414E0,-1.400016239E0,8.971136449E0
2.171586250E0,2.241063513E0,8.467184002E0,-1.118107793E0,8.829820815E0
2.181637250E0,2.717525049E0,8.312611102E0,-7.253101180E-1,8.775563828E0
2.191689250E0,3.220189714E0,8.306246992E0,-1.116634733E0,8.978320223E0
2.201740250E0,3.596594281E0,8.369717934E0,-2.035649365E0,9.334427516E0
2.211792250E0,3.370661377E0,8.005073871E0,-2.316800450E0,8.989445485E0
2.221843250E0,1.379114344E0,6.009869989E0,-2.928285599E-2,6.166145566E0
2.231895250E0,-1.839335531E0,1.188388694E0,-2.389746512E0,3.241344054E0
2.241946250E0,-6.272061478E0,-6.704996341E0,-9.328528569E0,1.308881875E1
2.251998250E0,-1.234015336E1,-2.025069705E1,-9.000424926E0,2.536489237E1
2.262049250E0,-1.591119648E1,-3.201058677E1,-1.315747483E0,3.577114801E1
2.272101250E0,-1.397553538E1,-3.366961259E1,1.073088852E1,3.800145220E1
2.282152250E0,-2.159829607E0,-2.583592236E1,7.931874332E0,2.711225514E1
2.292204250E0,7.469895764E0,-2.016044411E1,-1.046739602E0,2.152529938E1
2.302255250E0,5.666914419E0,-2.454115703E1,-3.513418808E0,2.543081632E1
2.312307250E0,-3.108558181E0,-2.737978844E1,-3.175330460E-1,2.755751760E1
2.322358250E0,-7.621587156E0,-2.496725766E1,4.560751903E0,2.650005668E1
2.332410250E0,-9.946878641E0,-2.221546676E1,1.470104620E0,2.438500699E1
2.342461250E0,-1.052277325E1,-1.909045510E1,-2.462719764E0,2.193716530E1
2.352513250E0,-9.779214410E0,-1.690251471E1,-2.969318727E0,1.975208576E1
2.362564250E0,-8.563011680E0,-1.669344518E1,-3.334804789E0,1.905563444E1
2.372616250E0,-5.401537952E0,-1.593391408E1,-3.874473850E0,1.726492913E1
2.382667250E0,-2.328895855E0,-1.342874120E1,-4.137997042E0,1.424352012E1
2.392719250E0,4.126891717E-2,-9.439911010E0,-3.571728120E0,1.009310977E1
2.402771250E0,2.169863429E0,-4.445805291E0,-2.033391609E0,5.348660900E0
2.412822250E0,3.640792800E0,7.982455087E-1,-8.487432325E-1,3.822686644E0
2.422874250E0,4.538574291E0,6.057903112E0,-5.732342716E-1,7.591142485E0
2.432924833E0,5.320472739E0,9.998275666E0,-3.349873356E0,1.181078312E1
2.442976833E0,6.562993201E0,1.240082173E1,-7.256157228E0,1.579572971E1
2.453027833E0,8.035971143E0,1.361255310E1,-7.051091866E0,1.730885122E1
2.463079833E0,9.487412621E0,1.343959831E1,-4.132589829E0,1.696207828E1
2.473130833E0,9.130401514E0,1.249259729E1,-2.383334455E0,1.565597337E1
2.483182833E0,7.168350760E0,1.069256938E1,-2.705445871E0,1.315430461E1
2.493233833E0,3.883466867E0,8.579633560E0,-3.483205075E0,1.004112267E1
2.503285833E0,9.988012049E-1,6.881118570E0,-3.394705127E0,7.737662407E0
2.513336833E0,7.202395588E-2,5.811976238E0,-9.558188342E-1,5.890487661E0
2.523388833E0,-2.180950043E-1,5.387151462E0,1.357323525E0,5.559792574E0
2.533439833E0,1.217095014E-1,6.221947916E0,1.518416655E0,6.405703569E0
2.543491833E0,8.124735385E-1,7.939109092E0,6.048173491E-1,8.003459905E0
2.553542833E0,1.635914699E0,9.398722638E0,3.575817955E-1,9.546730795E0
2.563594833E0,2.559747291E0,1.039648041E1,4.743835826E-1,1.071746942E1
2.573645833E0,2.858208766E0,1.075140757E1,1.301714019E0,1.120074022E1
2.583697833E0,3.338512800E0,1.078029632E1,4.116093664E0,1.201260519E1
2.593748833E0,4.513426878E0,1.114828733E1,6.442901917E0,1.364427784E1
2.603800833E0,5.716450861E0,1.158419960E1,6.958412329E0,1.467279772E1
2.613851833E0,5.877303670E0,1.139414287E1,5.151011074E0,1.381673280E1
2.623903833E0,5.193626166E0,1.071893798E1,2.544880160E0,1.217972903E1
2.633954833E0,4.021572546E0,1.004693619E1,6.799399638E-1,1.084326016E1
2.644006833E0,2.777587064E0,9.337962466E0,-1.898649395E-1,9.744156280E0
2.654057833E0,1.570206614E0,8.649893703E0,-2.937277155E-1,8.796163133E0
2.664109833E0,6.496148416E-1,8.303878285E0,-3.323922828E-2,8.329315630E0
2.674160833E0,2.197376333E-1,8.254433645E0,2.737337463E-1,8.261893826E0
2.684212833E0,1.808944336E-1,8.251643938E0,3.666436641E-1,8.261766038E0
2.694263833E0,3.002790821E-1,8.139966797E0,1.164823830E-1,8.146336301E0
2.704315833E0,5.565382782E-1,7.973804716E0,-4.154750776E-1,8.003993756E0
2.714366833E0,1.002265242E0,7.886612206E0,-1.119917214E0,8.028536745E0
2.724418833E0,1.575722292E0,7.963758030E0,-1.869512427E0,8.330631393E0
2.734469833E0,2.709995297E0,8.525464370E0,-2.462829691E0,9.278639303E0
2.744521833E0,3.897631162E0,8.915641469E0,-3.043178709E0,1.019515219E1
2.754572833E0,4.782053520E0,8.566415929E0,-3.432399788E0,1.039388696E1
2.764624833E0,5.089766167E0,6.241260685E0,-3.735110142E0,8.877505412E0
2.774675833E0,3.955504564E0,1.611102040E0,-3.155301408E0,5.310140592E0
2.784727833E0,2.841426672E-1,-5.827087782E0,-6.741691128E0,8.915497089E0
2.794778833E0,-6.994682023E0,-1.870027040E1,-1.509627120E1,2.503044334E1
2.804830833E0,-1.270935241E1,-3.461092075E1,-1.738088946E1,4.076197728E1
2.814881833E0,-1.009526226E1,-3.996316960E1,1.665579963E0,4.125219268E1
2.824933833E0,1.438341960E0,-3.263687502E1,5.949784001E0,3.320593875E1
2.834984833E0,9.606960114E0,-2.097603480E1,9.085623536E0,2.479589227E1
2.845036833E0,4.030407981E0,-1.652499508E1,1.577873775E0,1.708242771E1
2.855087833E0,-6.215762147E0,-1.847941054E1,-3.703455656E0,1.984539989E1
2.865139833E0,-1.341335717E1,-2.061866233E1,3.730934353E0,2.487905260E1
2.875190833E0,-1.547940533E1,-2.096991627E1,5.572349154E0,2.665333850E1
2.885242833E0,-1.550388996E1,-2.262734463E1,1.046024926E0,2.744925313E1
2.895293833E0,-1.155299534E1,-2.232734505E1,-1.579430158E0,2.518881970E1
2.905345833E0,-7.766271245E0,-2.083933859E1,-2.671843092E0,2.239936935E1
2.915396833E0,-4.881616400E0,-1.890195022E1,-3.822150625E0,1.989278101E1
2.925448833E0,-1.666644157E0,-1.577582993E1,-4.647473420E0,1.653038178E1
2.935499833E0,1.130164167E0,-1.166128929E1,-4.309319583E0,1.248331583E1
2.945551833E0,2.963924671E0,-6.699415759E0,-3.193950334E0,7.991766995E0
2.955602833E0,4.460770362E0,-1.037641042E0,-2.077647868E0,5.029094533E0
2.965654833E0,6.091695340E0,4.839411782E0,-1.550312047E0,7.932977118E0
2.975705833E0,7.591514341E0,9.326075662E0,-3.672682929E0,1.257359842E1
2.985757833E0,8.674703439E0,1.251802800E1,-6.897971415E0,1.671925580E1
2.995808833E0,9.180030341E0,1.424095687E1,-7.040347023E0,1.834786897E1
3.005860833E0,9.999267354E0,1.411517274E1,-4.254700157E0,1.781364428E1
3.015911833E0,8.275542094E0,1.155992079E1,-3.214227893E0,1.457558323E1
3.025963833E0,2.856498163E0,8.199759255E0,-5.152861717E0,1.009691128E1
3.036014833E0,-1.116127049E0,6.697020739E0,-7.424790342E0,1.006098097E1
3.046066833E0,-3.418051013E0,5.696244637E0,-7.531073427E0,1.004227776E1
3.056117833E0,-4.394302723E0,5.845652692E0,-3.583069671E0,8.143705550E0
3.066169833E0,-2.997862787E0,7.079183060E0,-1.849287017E-1,7.690007328E0
3.076220833E0,-4.759133604E-1,8.167172722E0,1.061729232E0,8.249634705E0
3.086272833E0,2.043661804E0,9.396336390E0,1.772330825E0,9.777977688E0
3.096324833E0,4.800618137E0,1.066766491E1,1.768869274E0,1.183105692E1
3.106375833E0,7.133813596E0,1.128723822E1,2.701585540E0,1.362320108E1
3.116426833E0,8.564421444E0,1.133589641E1,3.662003574E0,1.467181421E1
3.126478833E0,8.209323546E0,1.119951011E1,3.689084369E0,1.436771949E1
3.136530833E0,7.273350381E0,1.052717503E1,2.819235027E0,1.310233285E1
3.146581833E0,5.473075712E0,1.006723305E1,3.134965961E0,1.187988849E1
3.156633833E0,3.871245602E0,9.877168136E0,3.298495041E0,1.110968327E1
3.166684833E0,2.526284845E0,9.568584253E0,2.100909262E0,1.011700249E1
3.176736833E0,9.055436701E-1,9.229761495E0,2.279014427E-2,9.274105131E0
3.186787833E0,-1.368633356E0,8.884416752E0,-1.398348759E0,9.097329144E0
3.196839833E0,-2.755322036E0,8.760556937E0,-7.825808179E-1,9.216918689E0
3.206890833E0,-3.297975516E0,8.889507923E0,2.533796982E-1,9.484945698E0
3.216942833E0,-3.108421941E0,9.521187893E0,4.898002052E-1,1.002772208E1
3.226993833E0,-1.428101439E0,1.032888192E1,3.894444795E-1,1.043441145E1
3.237045833E0,1.639435016E-1,1.061766888E1,7.556473732E-2,1.061920336E1
3.247096833E0,1.091333393E0,1.038811070E1,-3.270967519E-1,1.045039927E1
3.257148833E0,1.712750621E0,9.844209720E0,-8.307618749E-1,1.002657195E1
3.267199833E0,2.015760938E0,9.111976352E0,-1.436274970E0,9.442154997E0
3.277251833E0,1.959745197E0,8.226190424E0,-1.775332786E0,8.640753244E0
3.287302833E0,1.728565147E0,7.437271224E0,-1.594701769E0,7.800257333E0
3.297354833E0,1.664867188E0,6.900113835E0,-1.298976499E0,7.216002607E0
3.307405833E0,1.960403739E0,6.437581535E0,-1.136896359E0,6.824820303E0
3.317457833E0,2.607106229E0,5.554933807E0,-1.496267402E0,6.316099163E0
3.327508833E0,3.276923493E0,3.430290112E0,-3.256077292E0,5.753881922E0
3.337560833E0,2.765785629E0,-3.028854200E0,-1.268732478E1,1.333385683E1
3.347611833E0,1.482777583E0,-1.708526827E1,-2.853968657E1,3.329592664E1
3.357663833E0,-3.683531268E0,-3.238279713E1,-1.266426453E1,3.496566242E1
3.367714833E0,-3.645323807E0,-3.664573543E1,1.129136870E1,3.851873982E1
3.377766833E0,-5.066254221E-1,-2.938102372E1,-1.081655666E0,2.940529210E1
3.387817833E0,4.055023297E0,-1.712232207E1,-2.952736316E0,1.784196679E1
3.397869833E0,4.158611985E0,-8.129541796E0,1.410792453E1,1.680526816E1
3.407920833E0,-2.161525738E0,-5.385069854E0,4.161922094E0,7.140921955E0
3.417972833E0,-1.030371316E1,-1.049365879E1,-5.312402412E0,1.563665563E1
3.428024250E0,-1.346728604E1,-1.894855955E1,2.879072508E-1,2.324862561E1
3.438076250E0,-1.290990839E1,-2.392068325E1,5.725092461E0,2.777843598E1
3.448127250E0,-1.046431746E1,-2.490952927E1,2.893072497E0,2.717271531E1
3.458179250E0,-5.987671035E0,-2.428008586E1,-1.377998256E0,2.504543178E1
3.468230250E0,-4.135343868E0,-2.203524856E1,-1.639156981E0,2.247977054E1
3.478282250E0,-4.750491419E0,-2.047515997E1,-1.889002658E0,2.110373605E1
3.488333250E0,-4.772646227E0,-1.850552771E1,-3.744707762E0,1.947448444E1
3.498385250E0,-4.291886694E0,-1.493123471E1,-5.917498015E0,1.662464569E1
3.508436250E0,-4.253873653E0,-1.048191992E1,-7.322962836E0,1.347560281E1
3.518488250E0,-4.455839113E0,-5.618404164E0,-7.072032500E0,1.007147513E1
3.528539250E0,-3.487303973E0,-6.441275221E-1,-5.307625237E0,6.383343553E0
3.538591250E0,-1.319156848E0,4.345540745E0,-3.251760585E0,5.585503206E0
3.548642250E0,6.562347668E-1,9.072564365E0,-2.500634279E0,9.433728850E0
3.558694250E0,2.532645446E0,1.225034364E1,-4.020127991E0,1.313950689E1
3.568745250E0,4.730075281E0,1.369489710E1,-6.114367919E0,1.572607115E1
3.578797250E0,7.024525627E0,1.375272255E1,-5.658217855E0,1.644678592E1
3.588848250E0,8.946773214E0,1.230468766E1,-3.403432682E0,1.558952993E1
3.598900250E0,9.183019438E0,1.096691138E1,-1.210459667E0,1.435500623E1
3.608951250E0,6.463958910E0,1.003946579E1,-1.037152215E0,1.198537955E1
3.619003250E0,2.987776340E0,8.400141581E0,1.573403871E-1,8.917059047E0
3.629054250E0,1.552408420E0,6.821919020E0,1.623292315E0,7.182174389E0
3.639106250E0,9.718907104E-1,6.158894466E0,2.073297540E0,6.570777373E0
3.649157250E0,1.072410049E-1,6.325865217E0,2.379733740E0,6.759526911E0
3.659209250E0,-3.737657189E-1,7.966630767E0,1.744964687E0,8.164055876E0
3.669260250E0,1.692707536E-1,1.008422155E1,-8.536569402E-4,1.008564215E1
3.679312250E0,1.151440723E0,1.139690275E1,-1.004561005E0,1.149888477E1
3.689363250E0,1.883113196E0,1.217417196E1,-7.468508220E-1,1.234157058E1
3.699415250E0,2.368015481E0,1.225831456E1,-6.767567396E-2,1.248512528E1
3.709466250E0,2.622753963E0,1.151819506E1,4.953281995E-1,1.182340923E1
3.719518250E0,2.693428674E0,1.029289347E1,7.670903742E-1,1.066708216E1
3.729569250E0,2.693692383E0,9.156812217E0,1.059604354E0,9.603434283E0
3.739621250E0,2.724815358E0,8.514183921E0,1.257368882E0,9.027564626E0
3.749672250E0,2.738565670E0,8.550810880E0,1.143633521E0,9.051188114E0
3.759724250E0,2.722514186E0,9.062287883E0,8.007223892E-1,9.496225646E0
3.769775250E0,2.553803011E0,9.501411440E0,6.151539838E-1,9.857846803E0
3.779827250E0,2.212382627E0,9.872119650E0,5.482888070E-1,1.013183122E1
3.789878250E0,1.834029475E0,1.007659210E1,2.621085314E-1,1.024549039E1
3.799930250E0,1.429172064E0,1.001847897E1,-1.687669428E-1,1.012131098E1
3.809981250E0,1.073415039E0,9.763760219E0,-5.112921580E-1,9.835885986E0
3.820033250E0,8.808099478E-1,9.214581538E0,-7.771464888E-1,9.289149356E0
3.830084250E0,9.612471700E-1,8.515780796E0,-9.567589934E-1,8.623103064E0
3.840136250E0,1.132627745E0,8.007998064E0,-1.014635757E0,8.151095897E0
3.850187250E0,1.409438004E0,7.839217599E0,-1.012363675E0,8.028992979E0
3.860239250E0,1.831391650E0,7.832792678E0,-1.391548448E0,8.163519070E0
3.870290250E0,2.708737269E0,7.832830101E0,-2.486989217E0,8.653068840E0
3.880342250E0,3.462644511E0,5.619112262E0,-8.935028497E0,1.110851313E1
3.890393250E0,2.836942150E0,-1.170045978E0,-2.034008461E1,2.057027686E1
3.900445250E0,3.461380635E-1,-1.152211269E1,-1.536932214E1,1.921184415E1
3.910496250E0,-5.569734280E0,-2.281447658E1,6.323267884E0,2.432089633E1
3.920548250E0,-7.913319948E0,-2.841129107E1,1.000730494E1,3.114431321E1
3.930599250E0,-9.900650554E0,-2.796377091E1,-2.505324623E0,2.977032107E1
3.940651250E0,-3.916688115E0,-2.109274288E1,3.552767353E0,2.174549158E1
3.950702250E0,3.497281662E0,-1.259681105E1,1.283662056E1,1.832183001E1
3.960754250E0,2.192826907E0,-1.199008290E1,3.682850068E0,1.273318351E1
3.970805250E0,-3.800168602E0,-1.999868206E1,-3.139009895E0,2.059713448E1
3.980857250E0,-7.603293557E0,-2.567270786E1,1.187420687E0,2.680126806E1
3.990908250E0,-8.664991214E0,-2.721626053E1,2.008070826E0,2.863283532E1
4.000960250E0,-7.364903160E0,-3.018989245E1,-3.812604461E0,3.130826341E1
4.011011250E0,-3.365102721E0,-2.779327780E1,-6.375848386E0,2.871309196E1
4.021063250E0,-2.210629925E0,-2.177828916E1,-4.188380452E0,2.228728997E1
4.031114250E0,-3.836813103E0,-1.686027793E1,-3.492431982E0,1.764049852E1
4.041166250E0,-5.170022126E0,-1.289667498E1,-5.145784832E0,1.481662768E1
4.051217250E0,-5.777451353E0,-9.802523750E0,-6.487312689E0,1.309784875E1
4.061269250E0,-5.559529719E0,-6.783682907E0,-5.823061974E0,1.052780961E1
4.071320250E0,-4.120570585E0,-3.213622121E0,-4.664643184E0,7.004667381E0
4.081372250E0,-1.947025456E0,6.930704713E-1,-3.450936631E0,4.022464224E0
4.091423250E0,4.382971989E-1,4.682510521E0,-1.938781174E0,5.086932441E0
4.101475250E0,2.820837749E0,8.754750652E0,-8.576017642E-1,9.237871258E0
4.111526250E0,4.641356648E0,1.148344388E1,-2.348407867E0,1.260661312E1
4.121578250E0,6.153118587E0,1.259564160E1,-4.258076924E0,1.465067489E1
4.131630250E0,8.292599591E0,1.295229369E1,-2.837280704E0,1.563903071E1
4.141681250E0,9.728116177E0,1.243440112E1,-6.756422603E-1,1.580212227E1
4.151732250E0,9.046820244E0,1.242727921E1,4.401620587E-1,1.537777513E1
4.161784250E0,7.327482734E0,1.219103065E1,7.158102930E-1,1.424168585E1
4.171835250E0,5.175427877E0,1.032718739E1,4.182267773E-1,1.155901236E1
4.181887250E0,3.419887331E0,7.690426426E0,7.134129345E-1,8.446729899E0
4.191939250E0,2.035346479E0,6.440003452E0,9.758348767E-1,6.824114115E0
4.201990250E0,1.054356185E0,6.338503389E0,1.380248119E0,6.572166846E0
4.212042250E0,1.133495326E0,7.211521338E0,1.697389401E0,7.494797024E0
4.222093250E0,1.554704622E0,8.941151116E0,9.503747841E-1,9.124938464E0
4.232145250E0,1.433258245E0,1.005828915E1,-2.362661771E-1,1.016263900E1
4.242196250E0,7.335810046E-1,1.034528453E1,-7.762412667E-1,1.040026940E1
4.252248250E0,-1.982352287E-2,1.044241496E1,-9.677305627E-1,1.048717911E1
4.262299250E0,-3.236898717E-1,1.042812320E1,-8.101247120E-1,1.046455114E1
4.272351250E0,-3.829924791E-1,1.013492860E1,-4.120474398E-1,1.015052925E1
4.282402250E0,-2.047751932E-1,9.801010491E0,-1.585063219E-2,9.803162284E0
4.292454250E0,2.477589525E-1,9.758008897E0,2.066043850E-1,9.763339977E0
4.302505250E0,7.881825967E-1,9.973843660E0,3.175961228E-1,1.000997785E1
4.312557250E0,1.452841886E0,1.029888570E1,5.274351510E-1,1.041422028E1
4.322608250E0,2.332475374E0,1.053885075E1,7.646918464E-1,1.082093204E1
4.332660250E0,3.074025695E0,1.051356856E1,7.992898945E-1,1.098287859E1
4.342711250E0,3.553785354E0,1.030428619E1,7.066746032E-1,1.092277864E1
4.352763250E0,3.790681203E0,9.988085139E0,6.902929708E-1,1.070549453E1
4.362814250E0,3.790243539E0,9.573386571E0,6.076777339E-1,1.031430796E1
4.372866250E0,3.593279787E0,8.970411753E0,4.329569368E-1,9.673024261E0
4.382917250E0,3.252543235E0,8.240752330E0,1.297755893E-1,8.860354291E0
4.392969250E0,2.863134168E0,7.523190796E0,-2.855930690E-1,8.054657064E0
4.403020250E0,2.481715028E0,7.092387827E0,-6.336264344E-1,7.540713297E0
4.413072250E0,2.287285898E0,6.822925910E0,-1.271872169E0,7.307643504E0
4.423123250E0,2.404825020E0,6.190067142E0,-3.067549611E0,7.315051279E0
4.433177083E0,2.904299735E0,3.995529340E0,-6.231322757E0,7.951641023E0
4.443228083E0,2.246423801E0,-1.641466046E0,-1.005991818E1,1.043756602E1
4.453280083E0,-8.594787204E-1,-1.145583684E1,-1.349853590E1,1.772527497E1
4.463331083E0,-6.138629186E0,-2.135751650E1,-2.366141303E0,2.234781654E1
4.473383083E0,-1.074559660E1,-2.674367920E1,4.695548058E0,2.920171904E1
4.483434083E0,-1.085535820E1,-2.338988938E1,-1.616974398E-1,2.578666076E1
4.493486083E0,-1.705652102E0,-1.418191286E1,9.751958199E0,1.729556562E1
4.503537083E0,6.131268711E0,-9.656160926E0,1.270056521E1,1.709205244E1
4.513589083E0,4.745938777E0,-1.543730889E1,-1.009027693E-1,1.615068488E1
4.523640083E0,-1.552107435E0,-2.702664936E1,-6.774941320E0,2.790606821E1
4.533692083E0,-6.385952375E0,-3.073899512E1,-2.923935270E-1,3.139668299E1
4.543743083E0,-8.126896516E0,-3.096098349E1,3.314903498E-1,3.201154216E1
4.553795083E0,-6.174063898E0,-3.046700603E1,-5.068491658E0,3.149677967E1
4.563846083E0,-1.312204070E0,-2.320974836E1,-5.823575360E0,2.396514820E1
4.573898083E0,-1.159128496E0,-1.704895121E1,-3.060229189E0,1.736016472E1
4.583949083E0,-3.676388602E0,-1.388805753E1,-3.413887503E0,1.476646887E1
4.594001083E0,-5.844294384E0,-1.148345558E1,-4.440231725E0,1.362868984E1
4.604052083E0,-7.472734002E0,-9.700824298E0,-5.120520183E0,1.327280952E1
4.614104083E0,-7.950399481E0,-7.420487376E0,-5.566169232E0,1.221698509E1
4.624155083E0,-6.207996460E0,-3.738942992E0,-4.720781132E0,8.648970415E0
4.634207083E0,-2.958232698E0,1.089950234E-1,-3.058270372E0,4.256293961E0
4.644258083E0,6.023881964E-1,3.789990354E0,-1.032320076E0,3.973988320E0
4.654310083E0,3.499372334E0,7.786286264E0,7.591755831E-1,8.570193002E0
4.664361083E0,5.156341395E0,1.138963466E1,3.230294653E-1,1.250663753E1
4.674413083E0,6.176883425E0,1.299789963E1,-3.531065705E0,1.481781727E1
4.684464083E0,7.534126258E0,1.326027122E1,-4.868452563E0,1.600936231E1
4.694516083E0,9.400643449E0,1.272828452E1,-3.006617239E0,1.610655368E1
4.704567083E0,1.028428637E1,1.207153228E1,-1.003686261E0,1.589011717E1
4.714619083E0,9.586665013E0,1.134170387E1,-3.367959671E-3,1.485053548E1
4.724670083E0,7.900522732E0,1.004134392E1,-1.527409673E-2,1.277681809E1
4.734722083E0,5.572753782E0,8.213618910E0,1.185896830E-1,9.926388257E0
4.744773083E0,3.286136951E0,6.680454408E0,8.577257252E-1,7.494188453E0
4.754825083E0,1.638489813E0,6.188674335E0,1.172188983E0,6.508330501E0
4.764876083E0,5.522937843E-1,6.376988593E0,8.897871780E-1,6.462409239E0
4.774928083E0,-1.773823035E-1,7.149637915E0,6.257693846E-2,7.152111763E0
4.784979083E0,-5.452766870E-1,8.528578012E0,-1.400326288E0,8.659958619E0
4.795031083E0,-5.375985619E-1,9.826068149E0,-3.109456898E0,1.032033670E1
4.805082083E0,-1.196581520E-1,1.065369709E1,-3.459771774E0,1.120203555E1
4.815134083E0,3.263754979E-1,1.064461285E1,-2.345603542E0,1.090486862E1
4.825185083E0,2.649911356E-1,1.002919106E1,-8.815461854E-1,1.007134635E1
4.835237083E0,1.160971977E-1,9.404026648E0,4.003576132E-1,9.413260964E0
4.845288083E0,2.142351110E-1,9.075964521E0,1.121991733E0,9.147562195E0
4.855340083E0,6.991300870E-1,9.041826137E0,1.498013381E0,9.191705329E0
4.865391083E0,1.465918891E0,9.333312176E0,1.801440604E0,9.617942743E0
4.875443083E0,2.448431507E0,9.809950883E0,2.070687343E0,1.032074122E1
4.885494083E0,3.626570617E0,1.031195306E1,2.313740895E0,1.117326216E1
4.895546083E0,4.661941770E0,1.054759585E1,2.560813823E0,1.181284245E1
4.905597083E0,5.173415265E0,1.050391130E1,2.522447902E0,1.197744220E1
4.915649083E0,5.248853703E0,1.025944038E1,2.176994255E0,1.172799583E1
4.925700083E0,5.086242051E0,9.769482889E0,1.754033864E0,1.115299462E1
4.935752083E0,4.800168194E0,8.661996270E0,1.271307474E0,9.984388653E0
4.945803083E0,4.497575369E0,7.417804089E0,7.537356260E-1,8.707474898E0
4.955855083E0,4.330894055E0,6.608757604E0,-1.416825669E-1,7.902682730E0
4.965906083E0,4.091033667E0,6.125385827E0,-1.987754968E0,7.629421853E0
4.975958083E0,3.801008847E0,5.546709114E0,-3.922881778E0,7.784770497E0
4.986009083E0,3.281625824E0,3.521016095E0,-5.636380259E0,7.411842201E0
4.996061083E0,1.160559163E0,-2.286288217E0,-8.530647926E0,8.907635232E0
5.006112083E0,-4.271005995E0,-1.320333337E1,-9.476704030E0,1.680408949E1
5.016164083E0,-1.009861973E1,-2.725076612E1,-6.155438762E0,2.970649425E1
5.026215083E0,-1.225309417E1,-3.492187334E1,3.181751580E0,3.714564709E1
5.036267083E0,-5.826011894E0,-2.685866587E1,7.125764319E0,2.839202113E1
5.046318083E0,2.628772502E0,-1.272386636E1,9.240712745E0,1.594358781E1
5.056370083E0,1.868439170E0,-9.191341195E0,7.691499975E0,1.212975638E1
5.066421083E0,-5.619993437E0,-1.634077855E1,-8.812833384E0,1.939771642E1
5.076473083E0,-1.201535807E1,-2.467655047E1,-8.020574255E0,2.859424041E1
5.086524083E0,-1.249279844E1,-2.504711192E1,2.406545563E0,2.809304700E1
5.096576083E0,-8.885413118E0,-2.448872154E1,1.817935745E0,2.611422867E1
5.106627083E0,-3.007105189E0,-2.488611468E1,-2.790530168E0,2.522198335E1
5.116679083E0,4.040401165E-1,-2.283061958E1,-3.709716854E0,2.313357814E1
5.126730083E0,2.553979012E-1,-2.041779644E1,-2.576054006E0,2.058124617E1
5.136782083E0,-1.124893633E0,-1.770426504E1,-3.660838809E0,1.811375519E1
5.146833083E0,-1.985191987E0,-1.367841029E1,-5.113455577E0,1.473727665E1
5.156885083E0,-2.154019229E0,-9.513423960E0,-5.163901845E0,1.103679829E1
5.166936083E0,-1.834751607E0,-5.805570028E0,-3.831455884E0,7.193817554E0
5.176988083E0,-8.908450855E-1,-1.966913298E0,-2.363946258E0,3.201655009E0
5.187039083E0,2.087011600E-1,2.631172784E0,-9.694297636E-1,2.811835781E0
5.197091083E0,9.945273288E-1,7.290973889E0,-4.080116916E-1,7.369793647E0
5.207142083E0,1.613264048E0,1.111002549E1,-9.301271188E-1,1.126500882E1
5.217194083E0,2.182206755E0,1.335460201E1,-3.522097245E0,1.398258167E1
5.227245083E0,3.653125162E0,1.405530076E1,-5.228359796E0,1.543478374E1
5.237297083E0,5.148282763E0,1.344153373E1,-4.508019081E0,1.508316547E1
5.247348083E0,6.403077115E0,1.168595752E1,-2.818236322E0,1.361996533E1
5.257400083E0,6.075849971E0,1.048678247E1,-2.010335891E0,1.228535754E1
5.267451083E0,4.235846103E0,9.209879208E0,-1.828385743E0,1.030083791E1
5.277503083E0,2.982710605E0,7.452496789E0,-1.731127251E0,8.211764275E0
5.287554083E0,2.386710053E0,5.912151321E0,-2.022119785E0,6.688713370E0
5.297606083E0,2.123410371E0,5.190455806E0,-1.967927206E0,5.943268508E0
5.307657083E0,2.079443548E0,5.463224323E0,-1.087721860E0,5.945926700E0
5.317709083E0,2.279960945E0,6.928594453E0,-5.168833387E-1,7.312373855E0
5.327760083E0,2.253853858E0,9.073674166E0,-8.674075449E-1,9.389558879E0
5.337812083E0,1.811682879E0,1.067031955E1,-1.010243329E0,1.087007386E1
5.347863083E0,1.033616258E0,1.146864107E1,-3.263050389E-1,1.151974677E1
5.357915083E0,3.391459630E-1,1.180225396E1,-1.121670648E-1,1.180765853E1
5.367966083E0,-5.656916557E-1,1.172499002E1,-3.555855560E-1,1.174401291E1
5.378018083E0,-1.572457938E0,1.124188488E1,-3.110169089E-1,1.135558590E1
5.388069083E0,-1.997490289E0,1.066735384E1,7.395757893E-1,1.087793077E1
5.398121083E0,-1.810076795E0,1.029632930E1,1.000829312E0,1.050202049E1
5.408172083E0,-8.639907244E-1,1.020557349E1,1.608469623E0,1.036761230E1
5.418224083E0,9.106292859E-1,1.023763729E1,4.101201975E0,1.106608876E1
5.428272708E0,2.754790524E0,1.017976505E1,5.674853768E0,1.197582785E1
5.438324708E0,3.755433894E0,9.736433841E0,5.297389101E0,1.170315167E1
5.448375708E0,4.206264161E0,9.200595583E0,3.491956311E0,1.070221361E1
5.458427708E0,4.459022337E0,8.909660352E0,1.447254871E0,1.006774426E1
5.468478708E0,4.434570743E0,8.696600677E0,-3.031313539E-1,9.766686728E0
5.478530708E0,4.041587273E0,8.425995045E0,-1.480527867E0,9.461700849E0
5.488581708E0,3.316483415E0,8.020822762E0,-1.863761251E0,8.877289340E0
5.498633708E0,2.734362692E0,7.815374408E0,-1.789502928E0,8.471076507E0
5.508685708E0,2.446410710E0,7.868384680E0,-1.796236582E0,8.433437537E0
5.518736708E0,2.694117476E0,8.199624184E0,-2.163747973E0,8.897972299E0
5.528788708E0,3.218516533E0,8.275235115E0,-3.828068007E0,9.669150405E0
5.538839708E0,3.512627680E0,6.619863220E0,-9.223512576E0,1.188420492E1
5.548891708E0,2.581274107E0,1.133996724E0,-1.773758949E1,1.796026185E1
5.558942708E0,-7.445701155E-1,-8.589680246E0,-2.260667589E1,2.419501573E1
5.568994708E0,-7.848529875E0,-2.353307132E1,-1.176017740E1,2.745371813E1
5.579045708E0,-8.632965429E0,-3.139444928E1,4.687781786E0,3.289551392E1
5.589097708E0,-2.571099660E0,-2.629586902E1,5.306089758E0,2.694880089E1
5.599148708E0,5.355589362E0,-1.883766477E1,1.879178166E-1,1.958507759E1
5.609200708E0,1.068750686E1,-1.291268465E1,8.373742572E0,1.873712338E1
5.619251708E0,4.804369711E0,-9.115073622E0,8.539354430E0,1.338234320E1
5.629302708E0,-3.236021343E0,-1.297713266E1,-2.018302430E0,1.352595102E1
5.639354708E0,-9.152046736E0,-2.137165273E1,-4.743430614E0,2.372778190E1
5.649405708E0,-1.007524257E1,-2.546513872E1,3.006639166E0,2.755038442E1
5.659457708E0,-8.784580223E0,-2.719188465E1,4.105068154E0,2.886899765E1
5.669508708E0,-6.536846792E0,-2.888577625E1,-2.573945500E0,2.972782587E1
5.679560708E0,-3.262010754E0,-2.555174066E1,-6.926481854E0,2.667411322E1
5.689611708E0,-3.449269882E0,-2.112061773E1,-5.253957152E0,2.203592571E1
5.699663708E0,-4.630151044E0,-1.698551828E1,-3.224024903E0,1.789805761E1
5.709715708E0,-5.019225358E0,-1.277108263E1,-4.070093619E0,1.431289058E1
5.719766708E0,-5.499536701E0,-9.503678405E0,-5.478754528E0,1.227116777E1
5.729818708E0,-5.686276304E0,-6.894408706E0,-6.791698855E0,1.122469523E1
5.739869708E0,-4.593439592E0,-4.091546468E0,-6.704129784E0,9.098670010E0
5.749921708E0,-2.520363662E0,-7.687164849E-1,-5.071084313E0,5.714810070E0
5.759972708E0,7.834640399E-2,3.812685737E0,-1.032373871E0,3.950760243E0
5.770024708E0,1.399034492E0,7.934105045E0,3.649703372E-1,8.064770531E0
5.780075708E0,2.402531011E0,9.893918070E0,-3.593676521E0,1.079704964E1
5.790127708E0,4.434104428E0,1.050993276E1,-5.471564206E0,1.265140244E1
5.800178708E0,6.328743802E0,1.056919546E1,-3.516330721E0,1.281114642E1
5.810230708E0,7.367236199E0,1.108754645E1,-1.174274100E0,1.336371113E1
5.820281708E0,7.233636092E0,1.161061147E1,-1.488631304E-1,1.368042214E1
5.830333708E0,5.861714408E0,1.095938016E1,2.411017513E-1,1.243084227E1
5.840384708E0,3.699200637E0,9.392225797E0,1.223132265E0,1.016828615E1
5.850436708E0,1.859216795E0,8.434610333E0,2.125792673E0,8.894848680E0
5.860487708E0,6.412347583E-1,8.259812499E0,1.853718220E0,8.489520350E0
5.870539708E0,2.619371349E-1,8.813452020E0,6.316408662E-1,8.839938787E0
5.880590708E0,4.939061201E-1,9.740896436E0,1.588911418E-1,9.754704149E0
5.890642708E0,6.992056623E-1,9.928352323E0,9.508998641E-1,9.998263797E0
5.900693708E0,8.580512689E-1,9.807525458E0,1.644977299E0,9.981470729E0
5.910745708E0,1.030403944E0,9.739400133E0,1.721071940E0,9.943829035E0
5.920796708E0,9.953677198E-1,9.657763647E0,1.486924867E0,9.822123046E0
5.930848708E0,1.110334943E0,9.586056903E0,1.146112813E0,9.717968163E0
5.940899708E0,1.584721303E0,9.507578498E0,8.328787132E-1,9.674661620E0
5.950951708E0,2.047054213E0,9.568462631E0,7.565351267E-1,9.814186338E0
5.961002708E0,2.277771455E0,1.000345630E1,7.980933349E-1,1.029049725E1
5.971054708E0,2.537892153E0,1.048785485E1,8.605686414E-1,1.082481290E1
5.981105708E0,2.859788683E0,1.069523804E1,9.161101735E-1,1.110881479E1
5.991157708E0,3.428758142E0,1.049916453E1,9.988960759E-1,1.108993380E1
6.001208708E0,4.173884620E0,1.002854553E1,1.282966822E0,1.093796335E1
6.011260708E0,4.616859738E0,9.390062912E0,1.668719333E0,1.059590957E1
6.021311708E0,4.740126645E0,8.828940125E0,1.857938740E0,1.019170843E1
6.031363708E0,4.566202970E0,8.602203228E0,1.848445201E0,9.912863340E0
6.041414708E0,4.295721883E0,8.734567818E0,1.642009252E0,9.871276303E0
6.051466708E0,3.777084380E0,8.751589063E0,1.259255193E0,9.614697144E0
6.061517708E0,3.117416128E0,8.565377464E0,6.444331853E-1,9.137793417E0
6.071569708E0,2.465718800E0,8.373899277E0,-5.913303807E-2,8.729573588E0
6.081620708E0,1.960659263E0,8.283268020E0,-8.037361903E-1,8.550012029E0
6.091672708E0,1.656457868E0,8.347545292E0,-1.813951745E0,8.701481828E0
6.101723708E0,1.396695898E0,8.267136136E0,-3.797804281E0,9.204325977E0
6.111775708E0,1.081046825E0,6.785835852E0,-9.140047081E0,1.143488920E1
6.121826708E0,5.003038511E-1,1.941037615E0,-1.886792294E1,1.897409937E1
6.131878708E0,-3.492471158E0,-6.685654922E0,-1.675594139E1,1.837544308E1
6.141929708E0,-1.419394175E1,-2.032423164E1,-1.522348031E0,2.483666478E1
6.151981708E0,-1.736399334E1,-2.969892748E1,5.580117180E0,3.485214866E1
6.162032708E0,-1.166809662E1,-3.120507434E1,1.506146858E0,3.334920721E1
6.172084708E0,2.785037586E0,-2.573155424E1,4.693668178E-1,2.588608937E1
6.182135708E0,1.057066311E1,-1.541220562E1,2.139916739E1,2.841125421E1
6.192187708E0,6.617458261E0,-1.674230919E1,1.745998474E0,1.808712751E1
6.202238708E0,-1.929287635E0,-2.534142099E1,-2.559854645E1,3.607208546E1
6.212290708E0,-6.198035728E0,-2.750974164E1,1.274359136E0,2.822809811E1
6.222341708E0,-4.302280120E0,-2.464569121E1,1.266232676E1,2.804022518E1
6.232393708E0,-1.940871846E0,-2.393425814E1,2.690251589E0,2.416305341E1
6.242444708E0,8.233553530E-1,-2.262112086E1,-3.323745365E0,2.287881785E1
6.252496708E0,4.746600097E-1,-2.056367980E1,-2.045097296E-1,2.057017387E1
6.262547708E0,-1.916990941E0,-1.803914093E1,2.412452128E0,1.830042035E1
6.272599708E0,-4.188580427E0,-1.550880630E1,-3.764601159E-1,1.606888301E1
6.282650708E0,-4.898073681E0,-1.274546715E1,-4.448768660E0,1.436069640E1
6.292702708E0,-3.707387616E0,-9.222242560E0,-6.073446765E0,1.164822889E1
6.302753708E0,-2.312857234E0,-5.002150903E0,-5.031600405E0,7.462427546E0
6.312805708E0,-1.242133230E0,-4.167907012E-1,-3.214070603E0,3.470858581E0
6.322856708E0,-6.993081348E-1,3.813283907E0,-2.179985837E0,4.447752722E0
6.332908708E0,1.339677505E-1,7.311554334E0,-3.656362181E0,8.175925546E0
6.342959708E0,1.653804402E0,1.001775157E1,-5.831914659E0,1.170904113E1
6.353011708E0,2.752666231E0,1.208992879E1,-6.538402151E0,1.401764075E1
6.363062708E0,4.205150267E0,1.300533262E1,-5.571068029E0,1.476003944E1
6.373114708E0,5.012615665E0,1.265493939E1,-4.271819050E0,1.426612227E1
6.383165708E0,3.882369052E0,1.213131187E1,-4.254607186E0,1.342919206E1
6.393217708E0,1.537227148E0,1.017376932E1,-4.714072037E0,1.131773496E1
6.403268708E0,5.572374590E-1,7.477120584E0,-3.147634538E0,8.131755591E0
6.413320708E0,1.414371300E0,6.241706243E0,8.018579916E-1,6.449985987E0
6.423371708E0,2.497059292E0,6.254892299E0,3.450141410E0,7.567196213E0
6.433424708E0,3.641163513E0,7.369316053E0,4.157294315E0,9.211296697E0
6.443475708E0,4.256773580E0,8.914645103E0,4.198218977E0,1.073387447E1
6.453527708E0,4.092930504E0,1.018007028E1,4.515852596E0,1.186502573E1
6.463578708E0,3.726724066E0,1.091794212E1,4.250710602E0,1.229465221E1
6.473630708E0,3.409976593E0,1.101195131E1,2.745243191E0,1.185020558E1
6.483681708E0,2.253344420E0,1.033498758E1,2.087076942E0,1.078171691E1
6.493733708E0,1.233204824E0,9.666146216E0,2.730931545E0,1.011993893E1
6.503784708E0,3.905820188E-1,9.158799686E0,2.786475416E0,9.581263552E0
6.513836708E0,-2.304387689E-2,8.868846202E0,1.993556575E0,9.090172264E0
6.523887708E0,-2.066712990E-2,8.977554127E0,1.016617963E0,9.034955302E0
6.533939708E0,5.445278049E-2,9.721285459E0,3.646604347E-1,9.728274941E0
6.543990708E0,-9.299017087E-2,1.049318868E1,-1.579448430E-1,1.049478930E1
6.554042708E0,-3.815315522E-1,1.073690296E1,-5.407013869E-1,1.075727705E1
6.564093708E0,-1.992286706E-1,1.051149163E1,-6.591659760E-1,1.053402336E1
6.574145708E0,6.517306566E-1,1.027224345E1,-2.136806488E-1,1.029511524E1
6.584196708E0,1.763484280E0,1.007736627E1,7.906626932E-1,1.026101044E1
6.594248708E0,2.910191682E0,9.616685203E0,1.702912681E0,1.019067032E1
6.604299708E0,3.814489018E0,8.699599130E0,2.043674522E0,9.716478634E0
6.614351708E0,4.452386625E0,7.887375267E0,2.271340541E0,9.337741864E0
6.624402708E0,4.625113375E0,7.376912171E0,1.984279529E0,8.930166413E0
6.634454708E0,4.520768350E0,7.229579878E0,1.416613268E0,8.643550477E0
6.644505708E0,4.519060963E0,7.406346470E0,1.068852310E0,8.741757563E0
6.654557708E0,4.569590846E0,7.736592532E0,7.695216465E-1,9.018214240E0
6.664608708E0,4.581146114E0,8.028773805E0,2.010904241E-1,9.246001617E0
6.674660708E0,4.859714484E0,8.329911259E0,-9.217281783E-1,9.687818603E0
6.684711708E0,4.431010666E0,6.802309797E0,-4.068714845E0,9.080733153E0
6.694763708E0,2.373152991E0,1.365957524E0,-1.117789880E1,1.150839331E1
6.704814708E0,2.542424914E-1,-9.229092574E0,-2.962940876E1,3.103453967E1
6.714866708E0,-5.020283704E0,-2.694946845E1,-4.435332460E1,5.214110184E1
6.724917708E0,-1.281717506E1,-3.165328915E1,7.653479040E-1,3.415840230E1
6.734969708E0,-9.257727558E0,-2.260536612E1,3.711420499E1,4.443165886E1
6.745020708E0,-2.622135327E0,-1.258667197E1,2.533605091E1,2.841153605E1
6.755072708E0,2.143051899E0,-7.924685181E0,2.279536554E1,2.422853683E1
6.765123708E0,4.617699690E0,-4.507483476E0,1.176518612E1,1.341864979E1
6.775175708E0,5.492880231E0,-8.465939130E0,-2.398765258E1,2.602405300E1
6.785226708E0,-3.285438501E0,-2.401398844E1,-1.914883487E1,3.088921533E1
6.795278708E0,-9.517566127E0,-3.922535389E1,2.603908387E-1,4.036434388E1
6.805329708E0,-1.186895081E1,-4.659051141E1,-9.845928801E0,4.907636968E1
6.815381708E0,-7.095330146E0,-3.343268575E1,-8.005564452E0,3.510238237E1
6.825432708E0,-3.581848480E0,-1.528872880E1,4.220184628E0,1.625991467E1
6.835484708E0,-4.979950780E0,-8.699810799E0,2.271996453E0,1.027854978E1
6.845535708E0,-5.708712655E0,-7.688579875E0,3.697406126E0,1.026520690E1
6.855587708E0,-5.208226663E0,-9.826098554E0,6.485141033E0,1.287380643E1
6.865638708E0,-4.861093550E0,-1.173054956E1,5.494041488E0,1.383548030E1
6.875690708E0,-3.805105114E0,-1.176083696E1,1.851226137E0,1.249892592E1
6.885741708E0,-4.877203506E-1,-1.022377237E1,-2.864527559E0,1.062868340E1
6.895793708E0,3.877856756E0,-7.584605856E0,-5.855246218E0,1.033672711E1
6.905844708E0,7.365988403E0,-3.905941810E0,-5.137321572E0,9.793173107E0
6.915896708E0,8.227897226E0,-2.958626801E-1,-3.012014219E0,8.766872712E0
6.925947708E0,6.345345216E0,3.727675992E0,-2.623201275E0,7.812820179E0
6.935999708E0,3.429946589E0,8.356926565E0,-4.426680218E0,1.005973424E1
6.946050708E0,1.306077650E0,1.232595632E1,-8.947863135E0,1.528722646E1
6.956102708E0,4.340806255E-1,1.538877934E1,-1.439122797E1,2.107392697E1
6.966153708E0,-4.953731865E-2,1.650325864E1,-1.783868668E1,2.430182590E1
6.976205708E0,-3.519015178E-2,1.650683012E1,-1.536847313E1,2.255363929E1
6.986256708E0,-6.384143539E-1,1.298964804E1,-1.085191068E1,1.693819632E1
6.996308708E0,-1.151279778E0,7.787737543E0,-7.985934180E0,1.121380604E1
7.006359708E0,2.845462713E-1,4.442615050E0,-3.805012436E0,5.856271399E0
7.016411708E0,2.185211640E0,2.976660199E0,4.386017511E0,5.733481094E0
7.026462708E0,3.250734691E0,3.014430288E0,1.320108921E1,1.392561748E1
7.036514708E0,3.161277262E0,3.936984678E0,1.510856322E1,1.592991541E1
7.046565708E0,3.744170695E0,6.894808071E0,1.251804320E1,1.477357770E1
7.056617708E0,4.873553089E0,9.531087229E0,9.470403070E0,1.429271415E1
7.066668708E0,5.056462766E0,1.092445591E1,6.754162070E0,1.380326983E1
7.076720708E0,4.593194302E0,1.165618584E1,3.250173651E0,1.294325040E1
7.086771708E0,3.876144399E0,1.265741627E1,-2.844214332E0,1.353972810E1
7.096823708E0,2.749625386E0,1.378802219E1,-6.049871961E0,1.530591214E1
7.106874708E0,1.371270304E0,1.351205232E1,-2.101196945E-1,1.358308104E1
7.116926708E0,-2.022262457E-1,1.185010641E1,3.458253837E0,1.234606969E1
7.126977708E0,-1.433866794E0,1.040399759E1,3.339536648E0,1.102051019E1
7.137029708E0,-1.258508212E0,9.710759302E0,2.760252993E0,1.017357782E1
7.147080708E0,-9.574014562E-1,9.058964326E0,2.690679313E0,9.498484478E0
7.157132708E0,-9.453379194E-1,8.376210097E0,2.763859556E0,8.870934506E0
7.167183708E0,-4.057877031E-1,8.198514968E0,3.014050511E0,8.744416036E0
7.177235708E0,6.552315308E-1,8.824634235E0,3.113652860E0,9.380742608E0
7.187286708E0,1.592760348E0,9.331931648E0,2.427221463E0,9.773087426E0
7.197338708E0,2.168863702E0,9.515457036E0,1.335659591E0,9.850476075E0
7.207389708E0,2.361283436E0,9.502570358E0,2.840555437E-1,9.795672025E0
7.217441708E0,2.294336910E0,9.474900749E0,-6.597530365E-1,9.771028611E0
7.227492708E0,1.916214138E0,9.428996598E0,-1.742372177E0,9.778226540E0
7.237544708E0,9.773789071E-1,9.142280717E0,-3.595600255E0,9.872431688E0
7.247595708E0,-5.577429508E-1,7.944954554E0,-9.295804042E0,1.224113364E1
7.257647708E0,-2.238496585E0,5.312916967E0,-2.021524421E1,2.102127618E1
7.267698708E0,-4.436257957E0,4.816445088E-1,-2.336943348E1,2.379165373E1
7.277750708E0,-7.163099960E0,-5.927140074E0,-1.575445017E1,1.829326900E1
7.287801708E0,-8.158008381E0,-1.259386873E1,-2.094919082E0,1.515081900E1
7.297853708E0,-7.749899041E0,-2.631356737E1,-1.019959355E0,2.745004700E1
7.307904708E0,5.702390353E-1,-3.972032304E1,-2.726007020E0,3.981783958E1
7.317956708E0,1.009254915E1,-3.724378630E1,5.262149101E0,3.894418288E1
7.328007708E0,1.290239589E1,-2.345304867E1,8.447215760E0,2.806907133E1
7.338059708E0,7.615003776E0,-1.517449175E1,1.736502889E0,1.706660261E1
7.348110708E0,-3.186106879E0,-1.290284964E1,-1.953785130E0,1.343324540E1
7.358162708E0,-1.182047739E1,-1.325850068E1,2.115605654E0,1.788818922E1
7.368213708E0,-1.427839075E1,-1.526406758E1,1.999321199E0,2.099670181E1
7.378265708E0,-9.882385021E0,-1.954861134E1,-2.751936498E-1,2.190628838E1
7.388316708E0,-4.018803012E0,-2.390093837E1,3.546631578E-1,2.423904739E1
7.398368708E0,-5.833772904E-1,-2.471640743E1,1.198280136E0,2.475231304E1
7.408419708E0,6.212554072E-1,-2.245452433E1,8.363860193E-1,2.247868240E1
7.418471708E0,1.029924180E-1,-1.918947653E1,-9.261860955E-1,1.921209092E1
7.428521500E0,-3.160827903E-1,-1.560529706E1,-2.831041725E0,1.586316494E1
7.438573500E0,1.981595072E-1,-1.149027460E1,-4.166888427E0,1.222410065E1
7.448624500E0,9.019376922E-1,-7.070001762E0,-4.485362874E0,8.421217051E0
7.458676500E0,1.427845623E0,-2.311504335E0,-3.747767025E0,4.628990504E0
7.468727500E0,1.638714200E0,2.370893919E0,-2.552655787E0,3.850009581E0
7.478779500E0,1.906166429E0,6.658961797E0,-1.505693114E0,7.088184142E0
7.488830500E0,2.465125600E0,1.035447869E1,-1.339421690E0,1.072782008E1
7.498882500E0,3.052586879E0,1.285893705E1,-2.568547350E0,1.346357991E1
7.508933500E0,3.343574735E0,1.442686792E1,-4.457700866E0,1.546561047E1
7.518985500E0,3.848302297E0,1.464513747E1,-5.110538986E0,1.598146084E1
7.529036500E0,4.333313633E0,1.408912105E1,-5.540891719E0,1.574745758E1
7.539088500E0,3.460210900E0,1.194942604E1,-4.805835900E0,1.333633761E1
7.549139500E0,1.633478896E0,9.197432824E0,-3.436257781E0,9.953335692E0
7.559191500E0,7.740221022E-1,7.078405965E0,-2.713772306E0,7.620203498E0
7.569242500E0,7.526445356E-1,5.781857815E0,-2.128456664E0,6.206986496E0
7.579294500E0,1.322813404E0,4.923770732E0,-1.457948259E0,5.302731998E0
7.589345500E0,2.202053667E0,4.984408112E0,-8.986012709E-1,5.522757357E0
7.599397500E0,2.991036163E0,6.781480846E0,-1.218419482E0,7.511279906E0
7.609448500E0,3.977693578E0,8.997100784E0,-2.100685898E0,1.005896366E1
7.619500500E0,4.593427606E0,1.028348647E1,-2.897863705E0,1.162958663E1
7.629551500E0,4.300077474E0,1.071796032E1,-3.035220648E0,1.194059899E1
7.639603500E0,3.384867187E0,1.065192655E1,-1.086489778E0,1.122948463E1
7.649654500E0,1.931505923E0,1.032898951E1,2.080995984E0,1.071210921E1
7.659706500E0,5.323594567E-1,9.997114409E0,4.923942640E0,1.115665336E1
7.669757500E0,-3.609117848E-1,9.938837550E0,6.501894475E0,1.188214547E1
7.679809500E0,-4.421997768E-1,1.033194586E1,7.433939481E0,1.273609446E1
7.689860500E0,-2.130180131E-1,1.085592655E1,7.397825907E0,1.313865846E1
7.699912500E0,2.686639179E-1,1.112982650E1,6.001667515E0,1.264773621E1
7.709963500E0,1.072472906E0,1.137296542E1,3.872508016E0,1.206195917E1
7.720015500E0,1.674881860E0,1.138480720E1,1.016765313E0,1.155218057E1
7.730066500E0,1.897771874E0,1.106764253E1,-1.721230838E0,1.136032063E1
7.740118500E0,2.223497453E0,1.007260664E1,-2.596201172E0,1.063680431E1
7.750169500E0,2.555153718E0,8.932116584E0,-2.027862335E0,9.509139963E0
7.760221500E0,2.652116341E0,8.104085358E0,-1.128365198E0,8.601344581E0
7.770272500E0,2.301156810E0,7.407717642E0,-4.690262175E-1,7.771073859E0
7.780324500E0,1.471539527E0,6.968826220E0,8.234524168E-2,7.122973270E0
7.790375500E0,5.659828471E-1,6.744020659E0,-2.158309624E-2,6.767763076E0
7.800427500E0,3.549498175E-1,6.773415197E0,-6.261595400E-1,6.811550379E0
7.810478500E0,7.607137663E-1,7.208066218E0,-1.097969105E0,7.330787147E0
7.820530500E0,1.533947883E0,7.909805771E0,-1.482480837E0,8.192421674E0
7.830581500E0,2.842123075E0,8.111172768E0,-3.503279736E0,9.281258329E0
7.840633500E0,3.395210327E0,4.912608397E0,-1.039949640E1,1.199210990E1
7.850684500E0,1.929607770E0,-2.879283008E0,-1.476969369E1,1.517094290E1
7.860736500E0,-2.960576847E0,-1.587653068E1,-5.288725866E0,1.699411260E1
7.870787500E0,-7.329677194E0,-2.904897906E1,3.758506021E0,3.019426633E1
7.880839500E0,-8.661920257E0,-3.706094621E1,-4.468091369E0,3.832109650E1
7.890890500E0,-3.204162496E0,-3.038180275E1,5.813459677E0,3.109850332E1
7.900942500E0,2.792934251E0,-1.820100472E1,1.356329615E1,2.287006902E1
7.910993500E0,1.613118744E0,-1.839559421E1,-4.754165225E0,1.906835403E1
7.921045500E0,-7.440182553E0,-2.585748221E1,-1.072038341E1,2.896363795E1
7.931096500E0,-1.221094744E1,-2.828722017E1,-1.574915376E-1,3.081069402E1
7.941148500E0,-1.061408805E1,-2.461241354E1,6.666575457E0,2.762015556E1
7.951199500E0,-5.850670187E0,-2.191634192E1,2.121085810E0,2.278278714E1
7.961251500E0,-6.696047909E-1,-2.023864945E1,8.119200996E-1,2.026599409E1
7.971302500E0,5.416129678E-2,-1.927012250E1,2.600107989E0,1.944482234E1
7.981354500E0,-1.388727751E0,-1.775479785E1,2.615739058E0,1.800009728E1
7.991405500E0,-1.373647635E0,-1.542546477E1,7.390542908E-1,1.550413082E1
8.001457500E0,-6.899101974E-1,-1.296824256E1,-2.379174892E0,1.320271806E1
8.011508500E0,6.209317638E-1,-9.819673634E0,-4.700818738E0,1.090455150E1
8.021560500E0,2.229327274E0,-6.003940328E0,-5.620482849E0,8.520975707E0
8.031611500E0,3.266560180E0,-1.677617041E0,-5.692092530E0,6.773826962E0
8.041663500E0,3.802957432E0,2.999885339E0,-5.433555551E0,7.279101813E0
8.051714500E0,3.978912722E0,7.731704845E0,-5.048612294E0,1.005482433E1
8.061766500E0,3.803322591E0,1.150757534E1,-5.368052702E0,1.325539674E1
8.071817500E0,3.608374959E0,1.371355907E1,-6.285420027E0,1.551091800E1
8.081869500E0,3.950933211E0,1.501503701E1,-5.823215171E0,1.658225089E1
8.091920500E0,4.644929296E0,1.568587520E1,-4.747080739E0,1.703399026E1
8.101972500E0,4.531041908E0,1.505401922E1,-4.709409467E0,1.641134891E1
8.112023500E0,3.413532577E0,1.223129809E1,-5.156169487E0,1.370558066E1
8.122075500E0,1.664606256E0,8.452754243E0,-3.758558646E0,9.399294196E0
8.132126500E0,5.135558344E-1,5.585190225E0,-1.187143822E0,5.733009672E0
8.142178500E0,4.676239090E-1,3.932261882E0,1.592751138E0,4.268279726E0
8.152229500E0,5.775522941E-1,3.598986962E0,3.555669619E0,5.092058547E0
8.162281500E0,1.788224435E0,5.784931696E0,3.883268062E0,7.193257412E0
8.172332500E0,3.385917932E0,8.932740481E0,2.917184075E0,9.988406063E0
8.182384500E0,3.981646296E0,1.094912649E1,1.819185734E0,1.179179014E1
8.192435500E0,4.252036750E0,1.241755179E1,1.311680160E0,1.319075107E1
8.202487500E0,4.052894034E0,1.314037874E1,6.511612109E-1,1.376660867E1
8.212538500E0,3.340571020E0,1.284602289E1,-1.722613120E-1,1.327438860E1
8.222590500E0,2.498950866E0,1.175350923E1,-4.615916289E-2,1.201631663E1
8.232641500E0,1.608944710E0,1.036090010E1,5.743006575E-1,1.050079879E1
8.242693500E0,1.073373816E0,9.410679610E0,7.861721778E-1,9.504266871E0
8.252744500E0,8.388975446E-1,8.843974485E0,4.807439645E-1,8.896670644E0
8.262796500E0,6.401407443E-1,8.517013389E0,5.683796939E-1,8.559927144E0
8.272847500E0,7.087665908E-1,8.340343861E0,1.257281173E0,8.464303973E0
8.282899500E0,9.340007530E-1,8.491486784E0,1.480353620E0,8.670014536E0
8.292950500E0,1.334057015E0,8.892856039E0,1.314242409E0,9.087894682E0
8.303002500E0,1.730219763E0,9.481057282E0,8.039418662E-1,9.671113180E0
8.313053500E0,1.906729077E0,1.000127646E1,6.572380029E-2,1.018162395E1
8.323105500E0,2.075931418E0,1.043361140E1,-3.008498434E-1,1.064237984E1
8.333156500E0,2.271649713E0,1.060853436E1,-4.019586539E-1,1.085647109E1
8.343208500E0,2.532968212E0,1.034680480E1,-4.997568440E-1,1.066405432E1
8.353259500E0,2.687430308E0,9.646127688E0,-5.170446853E-1,1.002683381E1
8.363311500E0,2.674590407E0,8.832873546E0,-4.598483912E-1,9.240376046E0
8.373362500E0,2.523803871E0,8.176024237E0,-5.034254602E-1,8.571487357E0
8.383414500E0,2.554206177E0,7.027537528E0,-2.212524422E0,7.797789252E0
8.393465500E0,2.357184245E0,2.711387812E0,-7.528274950E0,8.341634441E0
8.403517500E0,2.011452052E-1,-6.913302230E0,-2.094214434E1,2.205465068E1
8.413568500E0,-5.899175765E0,-2.108590398E1,-1.286408143E1,2.539488555E1
8.423620500E0,-9.681857100E0,-3.173981390E1,8.979157434E0,3.437701866E1
8.433671333E0,-9.553072175E0,-3.583984176E1,-7.854118936E-1,3.709949214E1
8.443723333E0,-4.263765095E0,-2.361787466E1,-2.456985691E0,2.412510051E1
8.453774333E0,3.840631627E0,-8.318141983E0,1.170452360E1,1.486397693E1
8.463826333E0,2.046079043E0,-7.890069664E0,4.671633238E0,9.394881365E0
8.473877333E0,-4.263194115E0,-1.685190940E1,-5.598230685E0,1.826203333E1
8.483929333E0,-7.159406859E0,-2.481115806E1,-5.279135263E-1,2.582884750E1
8.493980333E0,-6.602576512E0,-2.565571351E1,7.985174042E0,2.766898366E1
8.504031333E0,-3.607035654E0,-2.538604227E1,5.197406391E0,2.616247086E1
8.514083333E0,-4.723753564E-2,-2.558457629E1,-4.207467811E-1,2.558807932E1
8.524134333E0,9.217806570E-1,-2.426029889E1,-2.615357820E0,2.441826935E1
8.534186333E0,-1.143012035E0,-2.270563183E1,-4.266972878E0,2.313134780E1
8.544237333E0,-3.970008290E0,-1.995849298E1,-7.082754539E0,2.154687494E1
8.554289333E0,-5.802889080E0,-1.560648872E1,-9.186430703E0,1.901648024E1
8.564341333E0,-6.749140481E0,-1.141412280E1,-9.678648148E0,1.641673922E1
8.574392333E0,-6.776168066E0,-7.867661380E0,-8.812843909E0,1.361920581E1
8.584443333E0,-4.773781172E0,-4.229624373E0,-6.309429864E0,8.971488963E0
8.594495333E0,-1.222448433E0,-7.996646279E-1,-3.620553832E0,3.904132905E0
8.604546333E0,2.027860289E0,2.776809384E0,-1.379285667E0,3.704769447E0
8.614598333E0,4.732028251E0,6.671669551E0,-2.390856314E-1,8.182935165E0
8.624649333E0,6.290359170E0,9.760990393E0,-1.361791967E0,1.169187878E1
8.634701333E0,6.696097464E0,1.208575738E1,-3.195678771E0,1.418152374E1
8.644752333E0,7.513504883E0,1.337041405E1,-4.077531277E0,1.586968773E1
8.654804333E0,8.675138472E0,1.296159778E1,-2.925050919E0,1.586874184E1
8.664855333E0,8.712018031E0,1.208414823E1,-1.561776683E0,1.497881981E1
8.674907333E0,7.243914328E0,1.157351322E1,-1.207769290E0,1.370690373E1
8.684958333E0,4.548512803E0,9.636197947E0,-9.524061799E-1,1.069824084E1
8.695010333E0,2.747776789E0,7.280437791E0,4.178267912E-1,7.792921848E0
8.705061333E0,1.483636247E0,6.266864473E0,2.215831608E0,6.810629673E0
8.715113333E0,4.185384339E-1,6.182552301E0,3.563669779E0,7.148347338E0
8.725164333E0,-1.623216301E-1,6.825457170E0,3.635157838E0,7.734829436E0
8.735216333E0,-5.638820887E-2,8.245276905E0,2.152735473E0,8.521856658E0
8.745267333E0,3.995725514E-1,9.965629492E0,9.220006585E-2,9.974062875E0
8.755319333E0,6.413217357E-1,1.135160203E1,-1.093885410E0,1.142220415E1
8.765370333E0,5.802070762E-1,1.212052025E1,-1.779787195E0,1.226422822E1
8.775422333E0,3.229971229E-1,1.224442976E1,-1.892212780E0,1.239398469E1
8.785473333E0,7.286800146E-2,1.184283364E1,-1.018991860E0,1.188681466E1
8.795525333E0,-2.481292275E-1,1.094528487E1,-1.104935917E-1,1.094865461E1
8.805576333E0,-2.356347509E-1,9.723123239E0,3.601745971E-1,9.732644810E0
8.815628333E0,1.614601891E-1,8.927876768E0,1.114225607E0,8.998586093E0
8.825679333E0,7.015644291E-1,8.766851465E0,2.427617905E0,9.123771476E0
8.835731333E0,1.532892022E0,9.002839242E0,3.655627770E0,9.836894162E0
8.845782333E0,2.320912066E0,9.271170307E0,4.461098099E0,1.054716208E1
8.855834333E0,3.063247230E0,9.630767637E0,4.137562301E0,1.092037502E1
8.865885333E0,3.525427235E0,9.963413397E0,2.903058372E0,1.096020035E1
8.875937333E0,3.681322483E0,1.004031247E1,1.261580046E0,1.076808218E1
8.885988333E0,3.731298927E0,9.794410154E0,-1.778079808E-1,1.048258926E1
8.896040333E0,3.649660102E0,9.351061984E0,-2.610781789E-1,1.004144118E1
8.906091333E0,3.454290009E0,9.104572608E0,2.935056674E-1,9.742253713E0
8.916143333E0,3.035267133E0,8.984807013E0,7.267938490E-1,9.511457982E0
8.926194333E0,2.425234287E0,8.697740884E0,1.088025476E0,9.094847842E0
8.936246333E0,1.794850207E0,8.324086847E0,1.539134656E0,8.653371863E0
8.946297333E0,1.314451740E0,8.020652023E0,1.728093131E0,8.309328981E0
8.956349333E0,9.239954361E-1,7.649700569E0,7.949371541E-1,7.746199806E0
8.966400333E0,1.072736835E0,7.102960178E0,-7.765327504E-1,7.225358864E0
8.976452333E0,2.075348889E0,4.056720452E0,-7.061145569E0,8.403798581E0
8.986503333E0,1.742346888E0,-5.427733478E0,-2.669356155E1,2.729546284E1
8.996555333E0,-5.077927895E0,-2.391993012E1,-2.299514619E1,3.356672694E1
9.006606333E0,-1.055365941E1,-3.642138478E1,6.996726794E0,3.855970931E1
9.016658333E0,-5.415446724E0,-3.254157008E1,1.390769365E1,3.580090486E1
9.026709333E0,2.246688461E-2,-1.889393720E1,1.253983461E1,2.267661394E1
9.036761333E0,6.144345424E0,-8.961915164E0,6.494394252E-1,1.088534224E1
9.046812333E0,2.325122354E0,-7.149756029E0,-9.406129307E0,1.204161425E1
9.056864333E0,-7.672632179E0,-1.557731462E1,-3.929497318E0,1.780345372E1
9.066915333E0,-1.044147239E1,-2.642386223E1,1.840438316E0,2.847160084E1
9.076967333E0,-6.970551733E0,-3.203771317E1,5.289445074E0,3.321117110E1
9.087018333E0,1.457864059E0,-3.280387618E1,5.845940959E-1,3.284145871E1
9.097070333E0,6.862896892E0,-2.852596199E1,-4.134443689E0,2.962977364E1
9.107121333E0,3.167569451E0,-2.291023760E1,-4.146322600E0,2.349690351E1
9.117173333E0,-1.991990544E0,-1.885009361E1,-3.843137451E0,1.934072803E1
9.127224333E0,-4.855824332E0,-1.632928526E1,-4.119637077E0,1.752700764E1
9.137276333E0,-5.564757130E0,-1.387006330E1,-4.207790869E0,1.552580697E1
9.147327333E0,-5.086262516E0,-1.123167798E1,-4.314110792E0,1.306262640E1
9.157379333E0,-3.459957715E0,-8.365399180E0,-4.202772789E0,9.980706886E0
9.167430333E0,-1.399088725E0,-4.951050332E0,-3.637541163E0,6.300956622E0
9.177482333E0,5.086203459E-1,-8.314284575E-1,-2.927034295E0,3.085044197E0
9.187533333E0,1.967448172E0,3.853466558E0,-2.587625645E0,5.041414812E0
9.197585333E0,3.325091102E0,8.803177292E0,-2.413501410E0,9.714790288E0
9.207636333E0,4.061854892E0,1.302892496E1,-2.032342472E0,1.379789718E1
9.217688333E0,4.809531341E0,1.505702002E1,-2.422580967E0,1.599107070E1
9.227739333E0,5.876898458E0,1.502882240E1,-3.712691333E0,1.655860849E1
9.237791333E0,6.757115498E0,1.392209534E1,-3.150507860E0,1.579268971E1
9.247842333E0,6.397352691E0,1.200290701E1,-2.426340727E0,1.381604240E1
9.257894333E0,5.041975704E0,1.053993834E1,-1.554976956E0,1.178684743E1
9.267945333E0,3.021542549E0,8.989929174E0,-3.111221588E-1,9.489222462E0
9.277997333E0,1.646406358E0,7.118275205E0,4.219117292E-1,7.318367666E0
9.288048333E0,1.045721017E0,6.007593668E0,1.343131163E0,6.244094446E0
9.298100333E0,3.730966513E-1,5.613747441E0,1.875028982E0,5.930353710E0
9.308151333E0,-2.977701880E-1,6.456286778E0,1.478127000E0,6.630020020E0
9.318203333E0,-1.053791052E-1,8.542445853E0,2.333658850E-1,8.546282557E0
9.328254333E0,9.092098743E-2,1.045775923E1,-8.186883979E-1,1.049014992E1
9.338306333E0,-7.010489970E-2,1.157413771E1,-1.682874273E0,1.169605250E1
9.348357333E0,1.144937450E-1,1.209273194E1,-2.094052817E0,1.227323640E1
9.358409333E0,4.027195229E-1,1.202069191E1,-1.179667572E0,1.208514925E1
9.368460333E0,7.952473488E-1,1.137759642E1,6.094704171E-1,1.142162741E1
9.378512333E0,1.258155771E0,1.038646530E1,2.094565033E0,1.066999625E1
9.388563333E0,1.731507905E0,9.586945095E0,3.007999520E0,1.019586666E1
9.398615333E0,2.252103494E0,9.150214219E0,3.442352918E0,1.003235685E1
9.408666333E0,3.055978264E0,9.216588303E0,3.400491532E0,1.028823822E1
9.418718333E0,3.879080578E0,9.481466002E0,3.000957134E0,1.067479309E1
9.428769333E0,4.305566840E0,9.543079283E0,2.331343207E0,1.072583000E1
9.438822083E0,4.213972546E0,9.574222139E0,1.458040499E0,1.056168435E1
9.448873083E0,3.823117462E0,9.603647667E0,7.282787494E-1,1.036227126E1
9.458925083E0,3.328774263E0,9.567841657E0,2.048502568E-1,1.013243780E1
9.468976083E0,2.836179673E0,9.393509846E0,-1.874056005E-1,9.814125698E0
9.479028083E0,2.442418377E0,9.076839849E0,-5.194490969E-1,9.414045705E0
9.489079083E0,2.125921458E0,8.669374287E0,-7.850925625E-1,8.960689868E0
9.499131083E0,1.782526177E0,8.093216554E0,-1.207016169E0,8.374630845E0
9.509182083E0,1.594302258E0,7.462018980E0,-1.778020312E0,7.834850552E0
9.519234083E0,1.581082727E0,7.166367969E0,-2.172392789E0,7.653492202E0
9.529285083E0,1.881938052E0,7.326158339E0,-2.353655304E0,7.921740979E0
9.539337083E0,2.683132019E0,7.926676158E0,-2.583807414E0,8.758279117E0
9.549388083E0,3.559095502E0,7.880608869E0,-5.182918160E0,1.008135892E1
9.559440083E0,4.251004717E0,5.172796045E0,-9.614846839E0,1.171640473E1
9.569491083E0,3.292825581E0,-3.119940371E0,-1.347259999E1,1.421575460E1
9.579543083E0,-2.146238047E0,-1.644903507E1,-6.429158621E0,1.779076089E1
9.589594083E0,-8.841056725E0,-2.811717145E1,9.333726743E0,3.091695440E1
9.599646083E0,-1.098703282E1,-3.278320510E1,-2.687579119E-1,3.457637427E1
9.609697083E0,-7.907065766E0,-2.914655739E1,5.269233003E-1,3.020465436E1
9.619749083E0,2.139836223E0,-1.828822998E1,9.531695924E0,2.073382459E1
9.629800083E0,4.214684152E0,-1.321922844E1,-1.965361155E0,1.401335818E1
9.639852083E0,-2.488939263E0,-1.888014479E1,-6.618040059E0,2.016068303E1
9.649903083E0,-7.217846856E0,-2.515981817E1,2.388739914E0,2.628345187E1
9.659955083E0,-7.844385368E0,-2.600766678E1,7.711665852E0,2.823832331E1
9.670006083E0,-5.663429478E0,-2.568953849E1,2.191588759E0,2.639753554E1
9.680058083E0,-1.046007750E0,-2.393822255E1,-2.113899290E0,2.405413065E1
9.690109083E0,1.126954411E0,-2.224757967E1,-3.980785293E0,2.262899642E1
9.700161083E0,5.385048804E-1,-2.070986019E1,-5.413673848E0,2.141252346E1
9.710212083E0,-1.011919141E-1,-1.878112219E1,-6.351973035E0,1.982645586E1
9.720264083E0,-2.073492837E-1,-1.654336352E1,-7.038163673E0,1.797947770E1
9.730315083E0,-3.217102969E-1,-1.436815135E1,-7.642356466E0,1.627737335E1
9.740367083E0,-3.270787717E-1,-1.137551715E1,-7.133286177E0,1.343105143E1
9.750418083E0,-5.953265141E-1,-7.312961758E0,-5.863474420E0,9.392239116E0
9.760469083E0,-3.688784699E-1,-2.632249256E0,-3.657045135E0,4.520927626E0
9.770521083E0,5.867885560E-2,2.392728007E0,-7.991950965E-1,2.523351606E0
9.780572083E0,-1.410563301E-1,6.816736633E0,1.113713903E0,6.908556569E0
9.790624083E0,-5.562562962E-1,1.014425491E1,5.848969817E-2,1.015966288E1
9.800676083E0,-2.751641214E-2,1.220126328E1,-3.690316962E0,1.274715741E1
9.810727083E0,2.247194464E0,1.409361405E1,-4.802293657E0,1.505795021E1
9.820779083E0,4.400841957E0,1.418411726E1,-3.684192004E0,1.530130266E1
9.830830083E0,4.811772871E0,1.280055845E1,-2.036896868E0,1.382593228E1
9.840881083E0,4.255885388E0,1.183210517E1,-7.195402318E-1,1.259480096E1
9.850933083E0,3.089582797E0,1.001454613E1,-1.233394713E0,1.055262614E1
9.860984083E0,2.256978610E0,7.927677201E0,-2.420120459E0,8.590634510E0
9.871036083E0,1.747232968E0,7.042174278E0,-2.865550822E0,7.801052693E0
9.881087083E0,1.179146439E0,7.134711728E0,-1.908925291E0,7.479204071E0
9.891139083E0,9.574010177E-1,7.792272059E0,-6.094225796E-1,7.874485153E0
9.901190083E0,1.443620388E0,8.721777034E0,1.093312383E-2,8.840449875E0
9.911242083E0,2.171052899E0,9.501027278E0,5.114770031E-1,9.759333930E0
9.921293083E0,2.370770397E0,1.005060006E1,7.307557762E-1,1.035225183E1
9.931345083E0,2.158347923E0,1.059330938E1,2.458473881E-1,1.081374636E1
9.941396083E0,1.874538108E0,1.095585429E1,1.965822939E-1,1.111680174E1
9.951448083E0,1.723442401E0,1.087550536E1,1.255917603E0,1.108260798E1
9.961499083E0,1.923851479E0,1.066373442E1,2.720839251E0,1.117226040E1
9.971551083E0,2.275885290E0,1.040181541E1,3.710817300E0,1.127597369E1
9.981602083E0,2.672349461E0,1.003012896E1,3.895719123E0,1.108699987E1
9.991654083E0,2.997736780E0,9.679414133E0,3.171224545E0,1.061763386E1
1.000170508E1,3.064116126E0,9.471984158E0,1.932819353E0,1.014115783E1
1.001175708E1,3.047807364E0,9.619486020E0,8.660300139E-1,1.012786498E1
1.002180808E1,2.631947540E0,9.859844005E0,2.845734608E-1,1.020904764E1
1.003186008E1,1.833414641E0,9.851412320E0,-1.836996353E-1,1.002224922E1
1.004191108E1,9.425322792E-1,9.442356901E0,-6.027053348E-1,9.508402845E0
1.005196308E1,1.956101212E-1,8.726225011E0,-8.938381290E-1,8.774064785E0
1.006201408E1,-2.806239590E-1,7.979618602E0,-9.060224839E-1,8.035791161E0
1.007206608E1,-5.231766969E-1,7.343916333E0,-5.696766063E-1,7.384534677E0
1.008211708E1,-4.453797850E-1,6.988503270E0,-1.863519323E-1,7.005160109E0
1.009216908E1,-1.095160103E-1,6.937072915E0,1.078368361E-1,6.938775337E0
1.010222008E1,4.509437031E-1,7.062490429E0,1.637138522E-1,7.078765677E0
1.011227208E1,1.205597342E0,7.242305759E0,-2.002085178E-1,7.344694759E0
1.012232308E1,2.172769057E0,7.393895994E0,-1.066943633E0,7.780038050E0
1.013237508E1,3.599681611E0,7.603111709E0,-2.431311883E0,8.756500033E0
1.014242608E1,6.111914427E0,8.209634618E0,-5.139651103E0,1.145293028E1
1.015247808E1,8.118775318E0,5.982219676E0,-1.265670291E1,1.618312681E1
1.016252908E1,8.218325919E0,-2.548704239E0,-2.216771840E1,2.377907722E1
1.017258108E1,1.405729115E0,-1.471661851E1,-4.887558633E0,1.557058650E1
1.018263208E1,-6.881285216E0,-2.267061169E1,1.612416845E1,2.865828900E1
1.019268408E1,-7.853920423E0,-2.219754388E1,1.100854823E1,2.599236723E1
1.020273508E1,-1.228736119E1,-2.118077389E1,7.910648940E0,2.573291266E1
1.021278708E1,-1.089228570E1,-2.200799352E1,9.118918167E0,2.619443328E1
1.022283808E1,-5.820041449E-1,-1.856324441E1,2.033600208E0,1.868336965E1
1.023289008E1,4.094861255E0,-2.332315394E1,-1.416428116E1,2.759282985E1
1.024294108E1,-7.613529401E-1,-3.042067738E1,-1.034994476E1,3.214216276E1
1.025299308E1,-6.290814083E0,-2.784556828E1,3.742738712E0,2.879163260E1
1.026304408E1,-8.120156431E0,-2.242649979E1,2.130935884E-1,2.385225864E1
1.027309608E1,-6.391279773E0,-1.882654219E1,-9.090797153E0,2.186160426E1
1.028314708E1,-4.712407919E0,-1.624510641E1,-7.195837351E0,1.838179387E1
1.029319908E1,-4.443849982E0,-1.586871880E1,-3.964117805E0,1.694928520E1
1.030325008E1,-3.019414747E0,-1.645808422E1,-4.160309432E0,1.724220335E1
1.031330208E1,-4.716718633E-1,-1.653232164E1,-5.114375929E0,1.731175827E1
1.032335308E1,1.762494639E0,-1.507996215E1,-4.455068450E0,1.582274568E1
1.033340508E1,4.003278655E0,-1.254431241E1,-3.248411300E0,1.356238142E1
1.034345608E1,5.206665457E0,-9.811824331E0,-2.787336127E0,1.145209608E1
1.035350808E1,4.671864495E0,-6.176505110E0,-2.364728615E0,8.097374554E0
1.036355908E1,3.199231539E0,-1.580121737E0,-1.540941153E0,3.886690981E0
1.037361108E1,2.169922779E0,3.194169604E0,-4.771855684E-1,3.890885554E0
1.038366208E1,2.162427379E0,7.464547901E0,3.757116723E-1,7.780535122E0
1.039371408E1,2.761207259E0,1.082304531E1,-1.798941942E-1,1.117116544E1
1.040376508E1,3.354730053E0,1.324235535E1,-1.603354479E0,1.375445144E1
1.041381708E1,3.826968146E0,1.480258661E1,-2.355583570E0,1.546968098E1
1.042386808E1,4.215467971E0,1.559758341E1,-2.421348374E0,1.633761630E1
1.043391950E1,4.071219792E0,1.474091837E1,-2.889192284E0,1.556332024E1
1.044397050E1,3.684720592E0,1.283700414E1,-2.356448958E0,1.356166261E1
1.045402250E1,2.420171329E0,1.042799690E1,-1.464241033E0,1.080482996E1
1.046407350E1,1.094182887E0,8.258322043E0,-8.205795336E-1,8.370810590E0
1.047412550E1,8.401443172E-1,6.893636289E0,-5.126674597E-1,6.963540169E0
1.048417650E1,7.124864432E-1,6.182737657E0,-4.617113872E-1,6.240757909E0
1.049422850E1,4.355349742E-1,6.079739538E0,-3.545307914E-1,6.105621643E0
1.050427950E1,1.947540888E-1,6.582718783E0,1.057596859E-1,6.586448272E0
1.051433150E1,8.858444005E-2,7.667902951E0,3.014776882E-1,7.674338517E0
1.052438250E1,-8.310033649E-2,8.582432038E0,-8.117221713E-2,8.583218177E0
1.053443450E1,-5.076307046E-1,9.268748390E0,-9.735847219E-1,9.333555210E0
1.054448550E1,-1.121789785E0,9.707755002E0,-2.039131089E0,9.982834022E0
1.055453750E1,-1.326312963E0,9.877694385E0,-2.448737901E0,1.026276131E1
1.056458850E1,-7.167313756E-1,9.827100767E0,-1.041604285E0,9.908105411E0
1.057464050E1,1.468007809E-1,9.766440582E0,9.203063547E-1,9.810804040E0
1.058469150E1,1.154124010E0,9.847274830E0,1.917535901E0,1.009840422E1
1.059474350E1,2.260333012E0,9.951527177E0,1.878133707E0,1.037638592E1
1.060479450E1,3.084306269E0,9.972248540E0,1.798715947E0,1.059216999E1
1.061484650E1,3.594111553E0,9.891044748E0,2.199087375E0,1.075111107E1
1.062489750E1,3.688917139E0,9.820246661E0,2.713232024E0,1.083545025E1
1.063494850E1,3.612694589E0,9.715207279E0,2.741256559E0,1.072153451E1
1.064500050E1,3.414328968E0,9.545539207E0,2.373491253E0,1.041193650E1
1.065505150E1,2.873527009E0,9.309822741E0,1.843552397E0,9.916079991E0
1.066510350E1,2.194864808E0,8.838187496E0,1.286427205E0,9.197058480E0
1.067515450E1,1.708291973E0,8.144898339E0,8.427321486E-1,8.364677393E0
1.068520650E1,1.626263285E0,7.447261777E0,4.431788930E-1,7.635630149E0
1.069525750E1,2.029524260E0,6.979227832E0,3.117934191E-1,7.275012370E0
1.070530950E1,2.900963607E0,7.040102609E0,6.366927874E-1,7.640943155E0
1.071536050E1,3.798659436E0,7.338787156E0,4.046703002E-1,8.273534219E0
1.072541250E1,4.603813430E0,7.451450722E0,-1.406179643E0,8.871108000E0
1.073546350E1,5.337489890E0,6.109681376E0,-2.706319738E0,8.552261184E0
1.074551550E1,3.080056513E0,-1.305759269E0,-7.142932913E0,7.887537385E0
1.075556650E1,-3.748145632E0,-1.254947667E1,-6.172569934E0,1.447890120E1
1.076561850E1,-8.722781585E0,-2.301909873E1,1.022590309E0,2.463760369E1
1.077566950E1,-1.085454660E1,-3.272564043E1,-9.248000130E-1,3.449121596E1
1.078572150E1,-1.122292353E1,-3.671556521E1,1.691942135E0,3.842979846E1
1.079577250E1,2.574331416E0,-2.448264043E1,7.125373725E0,2.562806695E1
1.080582450E1,1.044371422E1,-1.463542992E1,3.045771656E0,1.823578078E1
1.081587550E1,6.221506451E0,-2.002363564E1,-5.509141338E0,2.167957022E1
1.082592750E1,-5.947829058E-1,-2.813919440E1,-6.790511870E0,2.895304957E1
1.083597850E1,-4.889403137E0,-2.853954390E1,2.516931054E-1,2.895643587E1
1.084603050E1,-6.745483632E0,-2.450090012E1,-7.082706007E-1,2.542237800E1
1.085608150E1,-5.831822273E0,-2.019774701E1,-4.741434959E0,2.155087795E1
1.086613350E1,-5.873897082E0,-1.720094373E1,-3.609003535E0,1.853105606E1
1.087618450E1,-7.481261582E0,-1.707313413E1,-3.144086448E0,1.890360980E1
1.088623650E1,-7.956406910E0,-1.763017497E1,-4.913998865E0,1.995682503E1
1.089628750E1,-6.004317473E0,-1.708575242E1,-6.192358081E0,1.913948961E1
1.090633950E1,-3.605094086E0,-1.468703861E1,-6.114415866E0,1.631232320E1
1.091639050E1,-1.817002968E0,-1.044058011E1,-4.938648387E0,1.169176893E1
1.092644250E1,-4.460465138E-1,-5.371469230E0,-3.080716664E0,6.208256949E0
1.093649350E1,1.567670676E-1,2.774106216E-1,-1.551303735E0,1.583690577E0
1.094654550E1,4.835628341E-1,6.040891222E0,-6.844832504E-1,6.098747174E0
1.095659650E1,7.645849885E-1,1.085954714E1,-1.561200732E0,1.099780442E1
1.096664850E1,1.667484255E0,1.356322248E1,-4.577392201E0,1.441159350E1
1.097669950E1,3.307055950E0,1.452457958E1,-6.434034029E0,1.622642366E1
1.098675150E1,5.527458326E0,1.475963297E1,-4.414119229E0,1.636716253E1
1.099680250E1,6.993386865E0,1.370007773E1,-1.727040632E0,1.547844498E1
1.100685450E1,6.784474620E0,1.233912308E1,1.190294667E-1,1.408180466E1
1.101690550E1,5.769549426E0,1.148724223E1,5.403786572E-1,1.286609668E1
1.102695750E1,3.695867724E0,9.426612103E0,-4.464337456E-1,1.013507558E1
1.103700850E1,2.188505230E0,6.820960661E0,-3.924686229E-1,7.174196199E0
1.104706050E1,1.734560736E0,5.547215483E0,2.639432415E-1,5.818072412E0
1.105711150E1,1.480634725E0,5.491690907E0,3.110296997E-1,5.696287184E0
1.106716350E1,1.096660791E0,6.727122205E0,-1.923932755E-1,6.818640131E0
1.107721450E1,2.366115282E-1,9.176526105E0,-5.877538582E-1,9.198373278E0
1.108726650E1,-8.755136861E-1,1.074473356E1,-4.316484030E-1,1.078898252E1
1.109731750E1,-1.517367957E0,1.151815179E1,-2.377044459E-1,1.162010024E1
1.110736950E1,-1.632043112E0,1.185143606E1,-4.084945254E-1,1.197025352E1
1.111742050E1,-1.703498280E0,1.187548917E1,-4.423511466E-1,1.200519987E1
1.112747250E1,-1.738226648E0,1.165702082E1,-6.944635704E-2,1.178611001E1
1.113752350E1,-1.377797404E0,1.110072374E1,5.518167977E-1,1.119950423E1
1.114757550E1,3.850419281E-1,1.075603739E1,1.021488767E0,1.081129210E1
1.115762650E1,1.816230843E0,1.050220742E1,1.557258539E0,1.077126313E1
1.116767850E1,2.892961400E0,1.007875440E1,2.378399405E0,1.075208351E1
1.117772950E1,3.696467941E0,9.640499743E0,3.090118986E0,1.077738122E1
1.118778150E1,4.237782116E0,9.242625954E0,3.293341305E0,1.068789169E1
1.119783250E1,4.578832371E0,9.109311776E0,3.065774689E0,1.064632525E1
1.120788450E1,4.688469126E0,9.356946622E0,2.723704387E0,1.081446986E1
1.121793550E1,4.375983396E0,9.657430356E0,2.175427494E0,1.082347802E1
1.122798750E1,3.836044779E0,9.806557159E0,1.407463692E0,1.062378261E1
1.123803850E1,3.256179326E0,9.740448539E0,6.513880098E-1,1.029093523E1
1.124808950E1,2.709113830E0,9.421873519E0,7.908578441E-2,9.803940683E0
1.125814150E1,2.191013832E0,8.975829198E0,-3.588189201E-1,9.246339948E0
1.126819250E1,1.779355670E0,8.446809964E0,-7.546477917E-1,8.665113874E0
1.127824450E1,1.534072136E0,7.748044889E0,-9.823146149E-1,7.959303922E0
1.128829550E1,1.423020063E0,7.006089356E0,-1.115564400E0,7.235658788E0
1.129834750E1,1.201182475E0,6.367242454E0,-1.548745139E0,6.662073800E0
1.130839850E1,1.117636507E0,5.752803000E0,-3.082426389E0,6.621571276E0
1.131845050E1,1.267993857E0,4.017807816E0,-6.491930820E0,7.739234706E0
1.132850150E1,-2.849059481E-1,-1.301264514E0,-1.530328369E1,1.536115075E1
1.133855350E1,-5.706000717E0,-1.386094867E1,-1.537634348E1,2.147361825E1
1.134860450E1,-1.050589468E1,-2.763538193E1,6.893244526E-1,2.957301685E1
1.135865650E1,-1.166970343E1,-3.138406463E1,6.567240618E0,3.412140296E1
1.136870750E1,-8.913200841E0,-2.494384541E1,1.944510569E0,2.655977588E1
1.137875950E1,2.371194174E0,-1.268631788E1,1.600645230E1,2.056141383E1
1.138881050E1,7.260928556E0,-8.367493653E0,1.812531135E1,2.124295048E1
1.139886250E1,6.324995736E0,-2.125676664E1,-1.813077615E1,2.864578054E1
1.140891350E1,-3.163028795E0,-3.313413627E1,-2.060819114E1,3.914809420E1
1.141896550E1,-8.351699739E0,-3.063203317E1,9.813869687E0,3.323227923E1
1.142901650E1,-8.973175732E0,-2.255448131E1,8.918464504E0,2.586042380E1
1.143906862E1,-6.330414351E0,-1.874864792E1,-9.012647946E0,2.174428127E1
1.144911963E1,-4.044650922E0,-1.745127473E1,-6.575399823E0,1.908250701E1
1.145917162E1,-3.914774029E0,-1.715900517E1,-9.632916489E-1,1.762625442E1
1.146922263E1,-3.970614062E0,-1.649594962E1,-2.243847810E0,1.711481764E1
1.147927463E1,-2.508599649E0,-1.506238308E1,-4.420876272E0,1.589693692E1
1.148932563E1,2.163542151E-1,-1.348333314E1,-4.524990624E0,1.422401567E1
1.149937763E1,2.852631107E0,-1.189919846E1,-3.395057130E0,1.269861572E1
1.150942863E1,4.918740957E0,-9.677495077E0,-2.040098219E0,1.104581026E1
1.151948063E1,5.989540390E0,-6.183836934E0,-9.371578109E-1,8.659832450E0
1.152953162E1,5.444254201E0,-1.309283971E0,4.851261603E-1,5.620451558E0
1.153958363E1,3.829421053E0,3.380764781E0,1.484934036E-1,5.110390043E0
1.154963463E1,2.480097688E0,7.661375120E0,-1.706315761E0,8.231589564E0
1.155968662E1,2.107644962E0,1.125735427E1,-4.740526010E0,1.239527246E1
1.156973763E1,2.797590389E0,1.396605587E1,-7.662308335E0,1.617368844E1
1.157978963E1,4.049693853E0,1.523440115E1,-8.335195388E0,1.783150248E1
1.158984063E1,5.396018765E0,1.466094132E1,-6.122866262E0,1.677944308E1
1.159989263E1,5.474925771E0,1.225232117E1,-3.339056007E0,1.382908100E1
1.160994363E1,3.615155683E0,9.212575943E0,-1.180200838E0,9.966633340E0
1.161999563E1,1.267922667E0,7.038044389E0,1.022233995E-1,7.152072870E0
1.163004663E1,-7.556430609E-1,5.643531988E0,7.149344531E-1,5.738604448E0
1.164009863E1,-2.591943814E0,5.260698992E0,1.025608715E0,5.953570345E0
1.165014962E1,-3.640267720E0,6.472937894E0,1.184433126E0,7.520196532E0
1.166020162E1,-2.892525782E0,8.222122516E0,1.724168479E0,8.884973889E0
1.167025263E1,-2.017930401E0,9.721384862E0,1.663702422E0,1.006703891E1
1.168030462E1,-1.333820788E0,1.094051588E1,1.035366476E0,1.107004739E1
1.169035563E1,-5.361674559E-1,1.169700993E1,4.017387986E-1,1.171618158E1
1.170040763E1,2.040328892E-1,1.184920944E1,2.363023567E-1,1.185332159E1
1.171045863E1,8.847777222E-1,1.144054520E1,4.628984085E-1,1.148404028E1
1.172050962E1,1.656829459E0,1.068909379E1,6.691308010E-1,1.083741417E1
1.173056163E1,2.379261285E0,1.012526900E1,9.334016327E-1,1.044285379E1
1.174061262E1,3.115184830E0,9.905751665E0,1.128705652E0,1.044520316E1
1.175066462E1,3.650173780E0,9.808941069E0,1.130273948E0,1.052694698E1
1.176071563E1,4.082411071E0,9.833423946E0,9.629206431E-1,1.069062780E1
1.177076762E1,4.409338838E0,9.840066383E0,7.499404907E-1,1.080886609E1
1.178081863E1,4.521435809E0,9.783377627E0,6.006366630E-1,1.079437928E1
1.179087063E1,4.381628591E0,9.696970983E0,5.007451697E-1,1.065273022E1
1.180092163E1,3.923429663E0,9.610600006E0,3.136961031E-1,1.038534246E1
1.181097363E1,3.369518246E0,9.366278193E0,3.302960560E-2,9.953989720E0
1.182102463E1,2.730815771E0,8.918876148E0,-1.971551017E-1,9.329661122E0
1.183107663E1,1.980617856E0,8.355350155E0,-2.852270333E-1,8.591628354E0
1.184112762E1,1.409200461E0,7.757321497E0,-3.300823402E-1,7.891187306E0
1.185117963E1,9.827225313E-1,7.178005098E0,-3.838580132E-1,7.255125618E0
1.186123062E1,5.934361093E-1,6.792892272E0,-4.414026551E-1,6.833036524E0
1.187128262E1,-7.069722265E-3,6.631841826E0,3.442349410E-1,6.640773576E0
1.188133363E1,-8.248611572E-1,6.522458548E0,1.889870385E0,6.840648471E0
1.189138563E1,-1.631057417E0,6.138834423E0,8.915299407E-1,6.414083100E0
1.190143663E1,-2.742384779E0,2.314441976E0,-5.699361788E0,6.734986320E0
1.191148863E1,-5.282022033E0,-6.739263949E0,-7.875028871E0,1.163329339E1
1.192153963E1,-6.646684983E0,-1.660917043E1,-9.214276314E-2,1.788998194E1
1.193159163E1,-7.657730550E0,-2.365571082E1,5.301044780E0,2.542311089E1
1.194164263E1,-5.154187281E0,-2.334291519E1,9.614076176E0,2.576602020E1
1.195169463E1,-1.260581050E0,-2.384904316E1,1.243160148E1,2.692416460E1
1.196174562E1,3.417040614E0,-2.372096107E1,2.527853360E0,2.409875937E1
1.197179763E1,4.664121612E0,-2.436503655E1,-1.634565513E1,2.970840753E1
1.198184863E1,-4.278853543E-1,-2.604269862E1,-1.490213663E1,3.000798083E1
1.199190062E1,-3.373129194E0,-2.521043167E1,1.307571029E0,2.546867895E1
1.200195163E1,-2.970705102E0,-2.382909480E1,5.282245982E0,2.458765890E1
1.201200363E1,-3.035342855E0,-2.252467688E1,-9.806824377E-1,2.274942006E1
1.202205463E1,-3.599387204E0,-2.017748290E1,-3.592191328E0,2.080841759E1
1.203210663E1,-3.882679540E0,-1.799180304E1,-2.465832821E0,1.857042026E1
1.204215763E1,-2.763929722E0,-1.656189920E1,-2.906558515E0,1.704065418E1
1.205220963E1,-1.493438227E0,-1.493472082E1,-5.027929523E0,1.582897088E1
1.206226062E1,-5.832121065E-1,-1.279749801E1,-5.934126327E0,1.411842580E1
1.207231263E1,8.957045603E-1,-1.026559984E1,-5.260618300E0,1.156974207E1
1.208236362E1,2.072964541E0,-7.293787569E0,-3.901697316E0,8.527588231E0
1.209241562E1,3.153226815E0,-3.926404726E0,-2.299422233E0,5.535958456E0
1.210246663E1,4.111967869E0,5.585786641E-1,4.380103929E-1,4.172785998E0
1.211251862E1,4.585245597E0,4.969401233E0,1.735935416E0,6.980895184E0
1.212256963E1,4.632060159E0,8.106584458E0,-9.095601225E-1,9.380831121E0
1.213262163E1,3.977269655E0,1.046521326E1,-3.794168190E0,1.182095913E1
1.214267263E1,3.748576280E0,1.251601656E1,-4.908168021E0,1.395681224E1
1.215272362E1,4.274460238E0,1.423886591E1,-5.177076792E0,1.574225005E1
1.216277563E1,4.699870319E0,1.469270574E1,-4.465876443E0,1.605952787E1
1.217282662E1,4.118599488E0,1.355620816E1,-3.098541316E0,1.450291694E1
1.218287862E1,3.144016281E0,1.074799396E1,-1.605487543E0,1.131290426E1
1.219292963E1,2.260621572E0,7.363070642E0,-1.708483908E0,7.889495322E0
1.220298162E1,2.067168050E0,6.045724531E0,-2.367767998E0,6.813977850E0
1.221303263E1,2.301609969E0,5.589118384E0,-5.550902883E-1,6.069907577E0
1.222308463E1,2.548533500E0,5.916603391E0,2.290266663E0,6.837144146E0
1.223313563E1,3.049534632E0,7.582765737E0,3.364348723E0,8.838373155E0
1.224318763E1,2.925867483E0,9.555698159E0,4.059789655E0,1.078674927E1
1.225323863E1,2.089331044E0,1.080830448E1,4.711203393E0,1.197414663E1
1.226329063E1,1.198761508E0,1.161442970E1,4.102088413E0,1.237574789E1
1.227334162E1,3.980293250E-1,1.201798815E1,2.494346184E0,1.228056308E1
1.228339363E1,-4.165806399E-1,1.208532937E1,8.388088131E-1,1.212156448E1
1.229344463E1,-9.694231854E-1,1.185854861E1,-5.106339077E-1,1.190905973E1
1.230349662E1,-1.414716285E0,1.134863165E1,-1.138286827E0,1.149297870E1
1.231354763E1,-1.341198074E0,1.034979975E1,-1.135705866E0,1.049795194E1
1.232359963E1,2.878150110E-1,9.424037574E0,-7.751594587E-1,9.460242801E0
1.233365063E1,1.681829668E0,9.004783441E0,-2.781977300E-1,9.164718753E0
1.234370263E1,2.841996483E0,8.820427748E0,5.670286216E-2,9.267151929E0
1.235375363E1,3.730455466E0,8.729861394E0,5.743595682E-2,9.493686156E0
1.236380563E1,4.172405567E0,8.604974223E0,-2.527226539E-1,9.566525928E0
1.237385663E1,4.197062398E0,8.561024796E0,-7.035030735E-1,9.560407675E0
1.238390863E1,3.895254854E0,8.522830784E0,-1.031655906E0,9.427405203E0
1.239395962E1,3.357029178E0,8.426296762E0,-1.213866694E0,9.151261900E0
1.240401162E1,2.602371446E0,8.320570332E0,-1.056685351E0,8.781845576E0
1.241406263E1,1.822112265E0,8.153880832E0,-6.925046801E-1,8.383640525E0
1.242411462E1,1.102659303E0,7.840312783E0,-3.271049380E-1,7.924226127E0
1.243416583E1,5.240865237E-1,7.534312785E0,1.031940007E-1,7.553223472E0
1.244421783E1,-7.828310788E-2,7.068292621E0,4.472909474E-1,7.082863687E0
1.245426883E1,-4.543000048E-1,6.484500178E0,6.125636673E-1,6.529193312E0
1.246432083E1,-2.936617150E-1,5.350359027E0,6.651922627E-1,5.399542543E0
1.247437183E1,-1.008417390E-1,2.026774169E0,2.103782876E-1,2.040157251E0
1.248442383E1,-2.549402981E0,-4.400282378E0,-1.130586979E1,1.239696061E1
1.249447483E1,-5.340019396E0,-1.538181180E1,-1.725200396E1,2.372230136E1
1.250452683E1,-5.207342564E0,-2.511976474E1,-1.405503705E0,2.569230309E1
1.251457783E1,-6.993659930E0,-3.034077167E1,-3.080145975E0,3.128835252E1
1.252462983E1,-3.616157311E0,-2.321833441E1,5.958123300E0,2.424184151E1
1.253468083E1,3.236097941E0,-1.453710197E1,2.375803242E1,2.804003866E1
1.254473283E1,7.880613547E0,-8.300076426E0,1.528430597E1,1.909464185E1
1.255478383E1,5.375657591E0,-1.528975557E1,-6.602426823E0,1.750046742E1
1.256483483E1,-5.156337302E0,-3.695580158E1,-1.138823250E1,3.901295841E1
1.257488683E1,-6.648559016E0,-3.618431059E1,-6.751357745E0,3.740439147E1
1.258493783E1,-3.748852853E0,-2.169135042E1,4.456315076E-1,2.201742873E1
1.259498983E1,-2.866292249E0,-1.762715898E1,-2.318391770E0,1.800853423E1
1.260504083E1,-1.844072215E0,-1.872346981E1,-2.519960496E0,1.898207378E1
1.261509283E1,-2.878079943E0,-1.985203155E1,-1.564464794E0,2.012048834E1
1.262514383E1,-2.799894192E0,-1.692116967E1,-4.542566185E0,1.774261249E1
1.263519583E1,-2.750088193E0,-1.297720283E1,-7.631210504E0,1.530379535E1
1.264524683E1,-3.866034563E0,-1.097539569E1,-7.811712881E0,1.401529136E1
1.265529883E1,-4.604239400E0,-8.138596795E0,-5.742745789E0,1.097337266E1
1.266534983E1,-5.300151325E0,-5.505675693E0,-4.811025889E0,9.030506022E0
1.267540183E1,-3.913680015E0,-1.553183615E0,-4.211222016E0,5.955137401E0
1.268545283E1,-1.788990127E0,2.865404642E0,-2.623113567E0,4.276886042E0
1.269550483E1,1.512437877E-1,6.810407022E0,-8.819717896E-1,6.868944076E0
1.270555583E1,2.301601344E0,9.975118353E0,-9.230321074E-1,1.027873257E1
1.271560783E1,4.247497557E0,1.114970937E1,-1.701917485E0,1.205212752E1
1.272565883E1,5.900424145E0,1.240366933E1,-1.612452747E0,1.382989594E1
1.273571083E1,7.256735517E0,1.292774825E1,-1.275730308E0,1.487999909E1
1.274576183E1,7.942815058E0,1.250947002E1,-7.323228300E-1,1.483615341E1
1.275581383E1,7.849543782E0,1.273237991E1,1.195405133E-1,1.495804552E1
1.276586483E1,7.214848403E0,1.288569040E1,6.457912011E-1,1.478215481E1
1.277591683E1,5.989802345E0,1.187631012E1,8.513511638E-1,1.332851353E1
1.278596783E1,3.956253885E0,9.649152453E0,1.313850646E0,1.051115081E1
1.279601983E1,2.296190477E0,8.229927964E0,1.311227585E0,8.644276880E0
1.280607083E1,7.860436852E-1,7.310912309E0,7.018051882E-1,7.386462888E0
1.281612283E1,-4.720933744E-1,6.812972195E0,3.736534524E-1,6.839523316E0
1.282617383E1,-1.377868740E0,6.721375562E0,2.348661344E-1,6.865171069E0
1.283622583E1,-2.229052308E0,7.302848999E0,-1.147492683E-1,7.636324056E0
1.284627683E1,-2.617700214E0,8.146890485E0,6.230544493E-2,8.557339596E0
1.285632883E1,-2.373443013E0,8.869927352E0,6.305893175E-1,9.203612652E0
1.286637983E1,-2.025155075E0,9.353523661E0,9.169884253E-1,9.614079557E0
1.287643183E1,-4.460133308E-1,9.849281595E0,1.312800778E0,9.946392397E0
1.288648283E1,1.104088070E0,1.080263970E1,2.599293180E0,1.116567777E1
1.289653483E1,1.584507003E0,1.151999951E1,3.958223812E0,1.228367155E1
1.290658583E1,1.462692251E0,1.110277260E1,4.788377284E0,1.217947393E1
1.291663783E1,1.451954717E0,1.056733839E1,5.074364601E0,1.181211197E1
1.292668883E1,1.518524829E0,1.030589534E1,4.709764101E0,1.143237833E1
1.293673983E1,1.892158108E0,9.996512146E0,4.086342154E0,1.096397326E1
1.294679183E1,1.969701836E0,9.764413353E0,3.410311346E0,1.052870918E1
1.295684283E1,2.146475590E0,9.844192178E0,2.675152324E0,1.042458234E1
1.296689483E1,2.212406747E0,9.910492587E0,2.144237130E0,1.037836017E1
1.297694583E1,1.899193916E0,9.653703926E0,1.322855504E0,9.927279773E0
1.298699783E1,1.680004313E0,9.328663639E0,1.429889810E-1,9.479811477E0
1.299704883E1,1.884046851E0,8.857775669E0,-1.393438268E0,9.162504709E0
1.300710083E1,2.568694408E0,8.111331228E0,-3.830114533E0,9.330683929E0
1.301715183E1,3.508673792E0,7.048878695E0,-8.961674259E0,1.192933729E1
1.302720383E1,4.844056518E0,5.325805984E0,-1.712636250E1,1.857798120E1
1.303725483E1,6.005283433E0,1.443496866E0,-1.980654723E1,2.074720283E1
1.304730683E1,6.485266748E0,-6.013318677E0,-1.424390387E1,1.676626028E1
1.305735783E1,2.234966767E0,-1.630835925E1,-1.900580145E0,1.657014975E1
1.306740983E1,-2.163797528E0,-1.958068332E1,7.977601898E0,2.125387756E1
1.307746083E1,-1.450865088E0,-1.700282604E1,6.709408650E0,1.833622827E1
1.308751283E1,-8.969613279E-2,-1.738816807E1,6.407758981E-2,1.738851748E1
1.309756383E1,6.274337799E0,-1.726191616E1,-5.320361057E-1,1.837455106E1
1.310761583E1,4.325004154E0,-1.602138492E1,1.149981960E1,2.019000462E1
1.311766683E1,-4.352825207E-1,-2.212551787E1,3.055974463E0,2.233980734E1
1.312771883E1,-6.106602817E0,-3.081446864E1,-1.350377734E1,3.419318760E1
1.313776983E1,-9.552541248E0,-2.621906467E1,-1.309176674E0,2.793571800E1
1.314782183E1,-9.056479844E0,-1.959853604E1,4.258840278E0,2.200591199E1
1.315787283E1,-9.134750673E0,-2.023679471E1,-3.009352566E0,2.240597539E1
1.316792483E1,-6.779885141E0,-2.308486353E1,-6.035997103E0,2.480546367E1
1.317797583E1,-2.680801612E0,-2.530918412E1,-1.729790870E0,2.550948206E1
1.318802783E1,1.576399838E-1,-2.252884712E1,2.463899732E-1,2.253074590E1
1.319807883E1,8.298605266E-1,-1.513122118E1,-9.931647813E-1,1.518647093E1
1.320813083E1,6.984170922E-1,-9.013265412E0,-2.549925138E0,9.393021773E0
1.321818183E1,5.108248924E-1,-4.643776810E0,-2.732125547E0,5.412034288E0
1.322823383E1,7.887000753E-1,-8.844475007E-1,-1.741642006E0,2.106564043E0
1.323828483E1,1.201948533E0,2.002602949E0,-1.072890397E0,2.570251476E0
1.324833683E1,1.809533150E0,4.811185518E0,-6.310583373E-1,5.178817523E0
1.325838783E1,2.362362978E0,7.057175894E0,-6.194796809E-1,7.467813972E0
1.326843983E1,2.618539290E0,8.835314759E0,-8.559714874E-1,9.254848572E0
1.327849083E1,2.873337267E0,1.040704750E1,-1.467630079E0,1.089571671E1
1.328854283E1,3.138302382E0,1.169710933E1,-2.189244903E0,1.230707527E1
1.329859383E1,3.231718669E0,1.204689211E1,-2.731051413E0,1.276833023E1
1.330864483E1,3.109134716E0,1.155032551E1,-3.180052671E0,1.237697350E1
1.331869683E1,2.637361185E0,1.055016395E1,-3.063981932E0,1.129821307E1
1.332874783E1,1.860689855E0,9.227133756E0,-2.460763285E0,9.729209631E0
1.333879983E1,1.206921298E0,8.889761692E0,-2.504420351E0,9.314324627E0
1.334885083E1,9.179314350E-1,8.658644646E0,-2.769824885E0,9.137103213E0
1.335890283E1,9.610824247E-1,8.211492863E0,-2.608062249E0,8.669157004E0
1.336895383E1,8.485441348E-1,7.895163758E0,-2.235954216E0,8.249432052E0
1.337900583E1,5.482573052E-1,7.974741440E0,-2.428069164E0,8.354196967E0
1.338905683E1,1.804329421E-1,8.753402284E0,-3.127369258E0,9.297045019E0
1.339910883E1,-1.701905206E-1,9.612122036E0,-3.787759057E0,1.033290731E1
1.340915983E1,-1.594067931E-1,1.028916529E1,-4.033672482E0,1.105273028E1
1.341921183E1,2.712473640E-1,1.040000511E1,-4.191090052E0,1.121601165E1
1.342926283E1,7.113419969E-1,9.669972634E0,-2.422808424E0,9.994217270E0
1.343931483E1,8.219216157E-1,8.754850640E0,5.887707621E-1,8.813036700E0
1.344936583E1,1.176832111E0,8.595111140E0,2.841814635E0,9.128898058E0
1.345941783E1,2.167989104E0,9.443074939E0,3.657000112E0,1.035593988E1
1.346946883E1,2.742672755E0,1.031092863E1,3.540922941E0,1.124169197E1
1.347952083E1,2.878127013E0,1.065346904E1,3.136857535E0,1.147257133E1
1.348957183E1,2.857622875E0,1.089370190E1,2.887027645E0,1.162642156E1
1.349962383E1,2.927518736E0,1.085898113E1,2.979279166E0,1.163460105E1
1.350967483E1,2.909360501E0,1.043350732E1,3.320792813E0,1.132917112E1
1.351972683E1,2.859513572E0,9.763889442E0,3.442559910E0,1.074065052E1
1.352977783E1,2.867793814E0,9.001662782E0,2.491747681E0,9.770515887E0
1.353982983E1,2.760624876E0,8.255372123E0,6.181056583E-1,8.726641576E0
1.354988083E1,2.459643836E0,7.151003825E0,-9.021364975E-1,7.615809462E0
1.355993283E1,2.272983901E0,5.683824567E0,-2.334477314E0,6.551496154E0
1.356998383E1,2.085534593E0,4.115973212E0,-4.138373895E0,6.198131050E0
1.358003583E1,1.699352311E0,2.043638123E0,-8.868203008E0,9.257930635E0
1.359008683E1,1.322615038E0,-3.044405454E0,-2.000287100E1,2.027640411E1
1.360013883E1,-9.963591883E-1,-1.091848708E1,-1.463655375E1,1.828755854E1
1.361018983E1,-7.782895464E0,-1.681009479E1,6.766872747E0,1.972164586E1
1.362024183E1,-1.040071262E1,-1.533411489E1,8.615595106E0,2.043375593E1
1.363029283E1,-1.412938498E1,-8.962480005E0,-1.544909512E0,1.680334232E1
1.364034383E1,-1.434918649E1,-1.058672308E1,7.419184617E0,1.931378158E1
1.365039583E1,-2.311260798E0,-1.630769968E1,1.547953280E1,2.260307349E1
1.366044683E1,9.461322929E0,-1.969149274E1,8.519630018E0,2.344900026E1
1.367049883E1,1.197812418E1,-2.368225718E1,-1.498844562E0,2.658140890E1
1.368054983E1,5.910125846E0,-2.856546110E1,-6.243380885E0,2.983110726E1
1.369060183E1,-8.957307266E-1,-2.776885983E1,3.172415038E0,2.796383605E1
1.370065283E1,-1.467020799E0,-2.796728392E1,3.233588901E0,2.819179344E1
1.371070483E1,3.434252186E0,-2.912029404E1,-5.710080904E0,2.987290807E1
1.372075583E1,3.097466305E0,-2.602316892E1,-5.748208258E0,2.682986240E1
1.373080783E1,-6.267479892E-1,-2.070718216E1,-4.390738553E0,2.117684564E1
1.374085883E1,-2.233790746E0,-1.530664116E1,-6.215306064E0,1.667072626E1
1.375091083E1,-1.408988792E0,-1.133431065E1,-6.741348481E0,1.326264026E1
1.376096183E1,-6.267966673E-2,-8.098838652E0,-5.341022778E0,9.701630820E0
1.377101383E1,4.362343012E-1,-4.927419394E0,-4.867391878E0,6.939831839E0
1.378106483E1,1.225424227E0,-2.414517657E0,-4.243213887E0,5.033529988E0
1.379111683E1,2.141403861E0,-1.715672475E-1,-2.672299175E0,3.428735729E0
1.380116783E1,1.800170150E0,2.426879840E0,-2.041823148E0,3.646834256E0
1.381121983E1,1.698308583E0,6.901413671E0,-2.072632127E0,7.403348339E0
1.382127083E1,2.160551446E0,1.110156457E1,-2.440559839E0,1.157017937E1
1.383132283E1,2.076123645E0,1.154450753E1,-3.172659452E0,1.215120206E1
1.384137383E1,2.747284161E0,1.314866658E1,-3.350142912E0,1.384407674E1
1.385142583E1,5.419433355E0,1.910704131E1,-2.968243716E0,2.008132855E1
1.386147683E1,5.819927866E0,2.007419300E1,-2.361338400E0,2.103379909E1
1.387152883E1,1.943198600E0,1.053414258E1,-2.641581997E0,1.103277554E1
1.388157983E1,1.063314339E-1,4.234525509E0,-2.685422081E0,5.015376797E0
1.389163183E1,-4.992250398E-2,2.372532894E0,-2.693830377E0,3.590003718E0
1.390168283E1,8.790758830E-2,3.086123584E0,-1.767215096E0,3.557377646E0
1.391173483E1,-1.147541288E-1,5.154828721E0,2.367256951E-1,5.161537242E0
1.392178583E1,-7.878156839E-1,7.225479811E0,2.260137130E0,7.611598511E0
1.393183783E1,-1.128913155E0,8.195141124E0,3.207747424E0,8.872678654E0
1.394188883E1,-9.138614074E-1,8.516070818E0,3.006791486E0,9.077411519E0
1.395193983E1,-9.338044327E-1,9.027557761E0,2.314648967E0,9.366236688E0
1.396199183E1,-1.135518901E0,9.772512916E0,1.301193178E0,9.923936495E0
1.397204283E1,-9.103574634E-1,1.024473581E1,3.162869678E-1,1.028996598E1
1.398209483E1,-5.996073338E-1,1.072527519E1,-7.217691904E-1,1.076624390E1
1.399214583E1,-8.537197977E-1,1.322835945E1,-2.157371730E0,1.343028608E1
1.400219783E1,-2.983409640E0,1.646444950E1,1.844735143E0,1.683395017E1
1.401224883E1,-6.933920097E0,1.525749765E1,4.160072912E0,1.726779341E1
1.402230083E1,-8.884470547E0,1.319112789E1,4.849398826E0,1.662697630E1
1.403235183E1,-8.133651804E0,1.296032894E1,4.038392354E0,1.582513920E1
1.404240383E1,-6.883926403E0,1.211929233E1,-1.486739949E0,1.401699272E1
1.405245483E1,-4.557541197E0,1.110144412E1,-4.158577194E0,1.270066957E1
1.406250683E1,-3.670329717E0,9.258442672E0,1.826042179E0,1.012543880E1
1.407255783E1,-3.389464634E-1,5.962243833E0,-1.129872537E0,6.077816070E0
1.408260983E1,5.066383737E0,4.237747325E0,-5.275394214E0,8.453196477E0
1.409266083E1,9.461262703E0,3.170894762E0,-6.476663740E0,1.189610183E1
1.410271283E1,1.314495828E1,3.843414025E0,-6.642586670E0,1.522122588E1
1.411276383E1,1.500506283E1,5.769518436E0,-8.327134416E0,1.810470715E1
1.412281583E1,1.341221579E1,7.575138044E0,-1.128572964E1,1.909549534E1
1.413286683E1,8.444072882E0,7.461697968E0,-1.261430007E1,1.691448697E1
1.414291883E1,3.574126940E0,4.452852355E0,-6.734458122E0,8.829224410E0
1.415296983E1,-2.189951831E0,1.870060018E0,3.634962833E0,4.637452781E0
1.416302183E1,-7.574120044E0,-4.034468288E0,1.305576017E1,1.562360722E1
1.417307283E1,-6.544430045E0,-1.733304286E1,1.158549534E1,2.185149061E1
1.418312483E1,-1.868064364E0,-2.427416147E1,-8.200461506E0,2.568992309E1
1.419317583E1,6.044957376E0,-1.950357024E1,-2.371295038E1,3.129272724E1
1.420322783E1,1.068127957E1,-2.230167811E1,6.782707007E0,2.564097686E1
1.421327883E1,6.939848589E0,-2.361041829E1,1.776033984E1,3.034869060E1
1.422333083E1,2.937432983E0,-2.254277752E1,-2.389183718E0,2.285855485E1
1.423338183E1,7.756132758E-1,-2.466600210E1,-1.205376610E1,2.746464113E1
1.424343283E1,-2.467478812E0,-2.895747013E1,-1.798448583E-1,2.906296393E1
1.425348483E1,4.249396732E-1,-3.083814752E1,5.555118579E0,3.133737798E1
1.426353583E1,6.403246685E0,-2.903271444E1,5.185573965E-2,2.973050226E1
1.427358783E1,8.917808447E0,-2.752689269E1,-6.366170660E-1,2.894239814E1
1.428363883E1,8.732046499E0,-2.632380936E1,-2.252090192E-1,2.773521758E1
1.429369083E1,7.441736158E0,-2.657375678E1,-2.645492030E0,2.772260115E1
1.430374183E1,6.083440826E0,-2.543183766E1,-6.834094677E0,2.702760568E1
1.431379383E1,3.693940189E0,-2.012931353E1,-8.075598893E0,2.200113076E1
1.432384483E1,2.877761562E0,-1.150240290E1,-5.997015470E0,1.328724872E1
1.433389683E1,5.613275571E0,-8.810737742E0,-4.373547739E0,1.132545284E1
1.434394783E1,6.762703682E0,-4.902571651E0,-3.200491029E0,8.944971365E0
1.435399983E1,6.146478488E0,-1.481991425E0,-9.621593356E-1,6.395408273E0
1.436405083E1,3.268722188E0,6.621387005E-2,3.162408113E-1,3.284651773E0
1.437410283E1,-2.670726859E0,2.124700413E0,-8.111364265E-1,3.507859191E0
1.438415383E1,-3.357502218E0,4.900245044E0,-2.490291724E0,6.441022862E0
1.439420583E1,-3.798153652E0,7.192835975E0,-3.556110499E0,8.877431071E0
1.440425683E1,-6.861292416E0,9.837994130E0,-2.606107525E0,1.227417038E1
1.441430883E1,-1.168760410E1,9.836770892E0,4.247627950E-1,1.528209981E1
1.442435983E1,-1.304031534E1,7.279901016E0,3.758204305E0,1.540035332E1
1.443441162E1,-1.534178994E1,7.979166028E0,2.657068348E0,1.749564578E1
1.444446263E1,-1.344585132E1,8.055910733E0,4.137717837E0,1.621139489E1
1.445451463E1,-1.053319065E1,1.064153955E1,9.976905262E-1,1.500619391E1
1.446456563E1,-8.571911142E0,1.149073536E1,-3.930479650E0,1.486483535E1
1.447461763E1,-5.122605300E0,1.062150465E1,-3.144970547E0,1.220443714E1
1.448466863E1,-8.665529158E0,8.326770135E0,-5.029875476E0,1.302789867E1
1.449472063E1,-1.348536797E1,8.204761548E0,-2.730076683E0,1.601956866E1
1.450477162E1,-1.379276078E1,8.613088405E0,-5.227131296E0,1.708064528E1
1.451482363E1,-1.083922456E1,1.005682267E1,-4.695003097E0,1.551359163E1
1.452487462E1,-9.456536983E0,9.825837768E0,-3.574519873E-1,1.364188226E1
1.453492563E1,-9.665298370E0,1.012282721E1,-5.879165424E0,1.518071834E1
1.454497763E1,-6.463846643E0,9.313796509E0,-6.705584571E0,1.317167352E1
1.455502863E1,-4.746608868E0,9.016557394E0,-6.943587883E0,1.233053185E1
1.456508063E1,-3.612147290E0,1.065845672E1,-1.780676264E0,1.139390695E1
1.457513163E1,-1.265225785E0,1.076123908E1,-4.261708922E0,1.164333396E1
1.458518363E1,-7.561478949E-1,9.214533007E0,-4.337828853E0,1.021254803E1
1.459523462E1,7.321298718E-1,9.959401038E0,-5.648043700E0,1.147284101E1
1.460528663E1,3.432176424E0,1.155050560E1,-7.076819031E0,1.397409683E1
1.461533763E1,4.177998721E0,1.170400203E1,-8.469818172E0,1.503918737E1
1.462538962E1,3.719712085E0,1.086016812E1,-9.069784598E0,1.463012311E1
1.463544063E1,4.031168704E0,1.113031767E1,-9.966852729E0,1.547489728E1
1.464549263E1,3.757541816E0,1.122036479E1,-1.040318132E1,1.575569383E1
1.465554363E1,4.905183018E0,8.724474939E0,-1.029503122E1,1.435844529E1
1.466559563E1,6.112673981E0,7.037456744E0,-1.003442198E1,1.369599230E1
1.467564663E1,4.484464742E0,5.383208100E0,-7.764259803E0,1.045815872E1
1.468569863E1,1.907864606E0,3.129274281E0,-4.281920115E0,5.636234981E0
1.469574962E1,-9.586948603E-1,1.484070695E0,-1.842206222E-1,1.776372399E0
1.470580163E1,-1.876920556E0,-8.706872481E-1,1.931200844E-1,2.078033307E0
1.471585262E1,-2.022519150E0,-2.211045954E0,-1.216969299E-1,2.999019517E0
1.472590462E1,-9.090707105E-1,-2.959654449E0,-2.989991266E-1,3.110524794E0
1.473595563E1,4.364654124E-1,-5.213655803E0,-1.359938400E0,5.405750766E0
1.474600762E1,3.835136122E-1,-7.808181163E0,-1.620420163E0,7.983767110E0
1.475605863E1,1.380053991E-1,-9.895659370E0,-5.455504829E-1,9.911646947E0
1.476611063E1,3.950612783E-2,-1.062296061E1,2.250671073E0,1.085883848E1
1.477616163E1,1.037457440E0,-1.053381747E1,6.712476684E0,1.253375330E1
1.478621363E1,9.041257203E-1,-1.034354907E1,1.125612636E1,1.531361588E1
1.479626463E1,2.019587356E-1,-1.095677231E1,1.394361075E1,1.773459691E1
1.480631663E1,2.634170651E-1,-1.094704020E1,1.461468283E1,1.826187372E1
1.481636762E1,-3.085827130E-1,-1.058483677E1,1.345080274E1,1.711893942E1
1.482641863E1,-1.536305627E0,-1.116459989E1,1.018375870E1,1.518938666E1
1.483647062E1,5.713308567E-1,-1.173693705E1,7.105332978E0,1.373200157E1
1.484652163E1,6.104171544E0,-1.055821088E1,4.993233315E0,1.317835749E1
1.485657363E1,1.032009589E1,-7.838325899E0,3.062209057E0,1.331618776E1
1.486662463E1,1.244310529E1,-4.130026410E0,1.336892769E0,1.317859134E1
1.487667663E1,1.134340424E1,-1.352884319E0,3.061590421E-1,1.142789784E1
1.488672763E1,1.052761708E1,-1.682183717E0,-7.850541902E-1,1.069003150E1
1.489677963E1,8.076524507E0,-2.074537150E0,-1.355138420E0,8.448097575E0
1.490683062E1,4.654363194E0,-2.247191979E0,-1.108215181E0,5.285935057E0
1.491688263E1,2.563000097E0,-2.815195770E0,2.195494992E-1,3.813462823E0
1.492693362E1,7.930935270E-1,-2.162531313E0,1.272374299E0,2.631439792E0
1.493698562E1,-1.244924837E0,-7.793812215E-1,1.444216658E0,2.059862785E0
1.494703663E1,-2.434832638E0,2.374068958E-1,2.455499037E0,3.466157459E0
1.495708863E1,-3.711695552E0,1.307262003E-2,3.821109236E0,5.327075235E0
1.496713963E1,-3.489176252E0,1.684343094E-1,5.341380043E0,6.382245827E0
1.497719163E1,-2.784692600E0,9.971420574E-1,6.288525483E0,6.949414214E0
1.498724263E1,-3.043707297E0,2.583963534E0,6.896992006E0,7.969286065E0
1.499729463E1,-4.630841015E0,3.750590646E0,6.079329649E0,8.512923568E0
1.500734563E1,-7.596854603E0,5.095122217E0,4.383067006E0,1.014316256E1
1.501739763E1,-9.566183971E0,6.446667523E0,2.558465581E0,1.181596987E1
1.502744862E1,-9.445535447E0,6.814007737E0,7.736319467E-1,1.167250392E1
1.503750062E1,-6.011729988E0,5.282186925E0,-4.064621794E-1,8.012964973E0
1.504755163E1,-2.662010999E0,3.993077602E0,-6.166473627E-3,4.799063380E0
1.505760362E1,-1.080128081E0,3.927975873E0,1.465306980E0,4.329295055E0
1.506765463E1,-1.526790453E0,4.328817124E0,2.663642080E0,5.307045874E0
1.507770663E1,-2.722240244E0,4.590682923E0,3.132836990E0,6.188669425E0
1.508775763E1,-4.035867527E0,4.621448632E0,3.070655944E0,6.861118136E0
1.509780862E1,-5.336139184E0,4.520028092E0,2.501214908E0,7.427052670E0
1.510786063E1,-6.137887174E0,4.575111203E0,1.634850214E0,7.828028916E0
1.511791162E1,-5.766120034E0,3.463756651E0,1.208567143E0,6.834206971E0
1.512796362E1,-5.193948348E0,2.465401881E0,1.628147551E0,5.975464025E0
1.513801463E1,-5.696542261E0,3.061234326E0,1.819866934E0,6.718159345E0
1.514806662E1,-6.126005048E0,3.924597936E0,1.663955607E0,7.463186656E0
1.515811763E1,-6.411909919E0,4.459386619E0,1.176826702E0,7.898331401E0
1.516816963E1,-6.537078341E0,4.422680138E0,7.471908376E-1,7.927911893E0
1.517822063E1,-6.540277353E0,3.995506243E0,6.124984708E-1,7.688592353E0
1.518827263E1,-6.142798836E0,3.280895799E0,5.301740599E-1,6.984220738E0
1.519832363E1,-6.760471800E0,3.118602528E0,4.847821248E-1,7.460876248E0
1.520837563E1,-7.537873154E0,2.915134041E0,3.600861579E-1,8.089944389E0
1.521842662E1,-7.818180487E0,2.907493485E0,1.702063081E-1,8.343047085E0
1.522847863E1,-7.778374981E0,3.292971177E0,2.364380121E-2,8.446735201E0
1.523852962E1,-7.521771092E0,3.489658355E0,-8.391836196E-2,8.292273397E0
1.524858162E1,-7.032372590E0,2.791679146E0,-7.099689245E-1,7.599460019E0
1.525863263E1,-6.007280842E0,1.186968405E0,-1.537737025E0,6.313553062E0
1.526868462E1,-4.529957249E0,-1.677127630E-1,-1.837515001E0,4.891329229E0
1.527873563E1,-2.421846557E0,-9.668572810E-1,-1.889129250E0,3.220087432E0
1.528878763E1,1.088196654E0,-1.867448359E0,-8.666099846E-1,2.328636553E0
1.529883863E1,5.684581196E0,-3.434985134E0,8.913206103E-1,6.701346035E0
1.530889063E1,9.693204206E0,-6.138935580E0,2.592482927E0,1.176289529E1
1.531894163E1,1.212373856E1,-9.493269192E0,3.691431734E0,1.583457814E1
1.532899363E1,1.467693930E1,-1.215841021E1,3.869545524E0,1.944769572E1
1.533904462E1,1.825120658E1,-1.348437044E1,3.817258260E0,2.301100276E1
1.534909563E1,2.143216440E1,-1.279186364E1,4.560853352E0,2.537263938E1
1.535914763E1,2.374884527E1,-1.060193753E1,6.568175004E0,2.682442272E1
1.536919863E1,2.667047674E1,-9.315141953E0,8.192866557E0,2.941443968E1
1.537925063E1,2.815420537E1,-8.448495716E0,8.605175368E0,3.062817989E1
1.538930163E1,2.619488059E1,-7.644657930E0,7.711232573E0,2.835622810E1
1.539935363E1,2.255288853E1,-7.086138323E0,5.951895431E0,2.437767824E1
1.540940463E1,1.869451089E1,-6.108882061E0,3.745529881E0,2.002079348E1
1.541945663E1,1.463053580E1,-4.704358642E0,1.578095385E0,1.544907612E1
1.542950762E1,1.088498253E1,-3.297088786E0,-1.321435654E-1,1.137414177E1
1.543956012E1,8.060087399E0,-1.784102440E0,-9.873874399E-1,8.314022153E0
1.544961113E1,5.912315628E0,-4.737998843E-3,-1.025357943E0,6.000571426E0
1.545966313E1,3.970613769E0,1.415442071E0,-5.931614363E-1,4.256887413E0
1.546971413E1,2.007895848E0,2.127644193E0,-1.566197178E-1,2.929683479E0
1.547976613E1,-1.092137092E-1,2.518872330E0,-1.265270224E-1,2.524411720E0
1.548981713E1,-2.348597317E0,2.686545331E0,-4.239167029E-1,3.593485849E0
1.549986913E1,-4.603166143E0,2.711618777E0,-9.842746747E-1,5.432385440E0
1.550992012E1,-6.430269592E0,2.720948302E0,-1.542267009E0,7.150560412E0
1.551997213E1,-7.684777431E0,2.759439061E0,-1.965411149E0,8.398401579E0
1.553002313E1,-8.495695025E0,2.871363247E0,-2.128699324E0,9.216990923E0
1.554007512E1,-9.044782489E0,3.051482047E0,-2.236490405E0,9.804158418E0
1.555012613E1,-9.215870265E0,3.156048682E0,-2.254995235E0,9.998895515E0
1.556017813E1,-9.098724808E0,3.189340681E0,-2.243684966E0,9.899131746E0
1.557022913E1,-8.982034848E0,3.022066167E0,-2.330980387E0,9.759267570E0
1.558028113E1,-8.713680394E0,2.690619087E0,-2.659859224E0,9.499605685E0
1.559033213E1,-8.480198734E0,2.233352643E0,-3.247824824E0,9.351470510E0
1.560038312E1,-8.299896331E0,1.798898965E0,-3.711417224E0,9.268167802E0
1.561043512E1,-8.385469748E0,1.377931744E0,-3.949899423E0,9.371046059E0
1.562048613E1,-8.667818928E0,1.010767824E0,-3.980569239E0,9.591541483E0
1.563053812E1,-9.082759570E0,7.054477112E-1,-3.885238574E0,9.904002052E0
1.564058913E1,-9.428680848E0,4.477864990E-1,-3.580024441E0,1.009540045E1
1.565064113E1,-9.673483887E0,2.646135516E-1,-3.063421184E0,1.015041182E1
1.566069213E1,-9.807990897E0,1.663265343E-1,-2.410361456E0,1.010119757E1
1.567074413E1,-9.691528394E0,1.165038715E-1,-1.669005847E0,9.834880593E0
1.568079513E1,-9.208153110E0,-2.172138289E-2,-7.948688147E-1,9.242422406E0
1.569084713E1,-8.814185845E0,-3.189436868E-2,-1.252824426E-2,8.814252454E0
1.570089812E1,-8.513415012E0,1.375007844E-1,8.594874913E-1,8.557795299E0
1.571095013E1,-8.052696519E0,1.830279364E-1,1.565342900E0,8.205468838E0
1.572100112E1,-7.592169814E0,2.296045174E-1,2.100407571E0,7.880702550E0
1.573105312E1,-7.374647545E0,3.289602596E-1,2.449898574E0,7.777894592E0
1.574110413E1,-7.367825598E0,3.341512714E-1,2.600070274E0,7.820286219E0
1.575115612E1,-7.545978565E0,3.180065243E-1,2.631727100E0,7.998056525E0
1.576120713E1,-7.808582867E0,3.623253492E-1,2.527567724E0,8.215463751E0
1.577125913E1,-8.366746963E0,4.288830355E-1,2.135413681E0,8.645599285E0
1.578131013E1,-8.900550390E0,4.286062429E-1,1.322152523E0,9.008417611E0
1.579136213E1,-9.339619567E0,4.782575823E-1,3.404564337E-1,9.358051857E0
1.580141313E1,-9.720277399E0,5.749038709E-1,-2.872164023E-1,9.741498881E0
1.581146412E1,-1.022972483E1,7.932850233E-1,-6.110585940E-1,1.027861683E1
1.582151612E1,-1.064947423E1,9.133747729E-1,-8.079466242E-1,1.071906398E1
1.583156713E1,-1.080029614E1,1.059163474E0,-1.046486126E0,1.090244730E1
1.584161912E1,-1.095931117E1,1.273688461E0,-1.691919331E0,1.116205064E1
1.585167013E1,-1.038002167E1,1.337521637E0,-2.302119554E0,1.071604257E1
1.586172213E1,-9.014136062E0,1.451987461E0,-2.329859329E0,9.422906188E0
1.587177313E1,-8.119675205E0,1.771051455E0,-1.705904117E0,8.483858647E0
1.588182513E1,-7.237737914E0,2.139663438E0,-1.106125971E0,7.628009203E0
1.589187613E1,-4.951024604E0,2.114772718E0,-8.541396278E-1,5.451097392E0
1.590192813E1,-1.736085105E-1,1.256178681E0,-9.985179073E-1,1.614051673E0
1.591197912E1,7.023884187E0,3.502151808E-1,-1.016631412E0,7.105711729E0
1.592203113E1,1.605397262E1,-1.085889927E0,-8.612720615E-1,1.611368932E1
1.593208213E1,2.475966046E1,-3.529958242E0,-8.298087788E-1,2.502378816E1
1.594213412E1,3.010412549E1,-5.439513279E0,2.413835871E-1,3.059256351E1
1.595218513E1,3.512779123E1,-7.591178126E0,2.479243995E0,3.602408018E1
1.596223713E1,4.058425149E1,-1.006618055E1,4.826061419E0,4.209157076E1
1.597228813E1,4.118733331E1,-9.956654016E0,6.463321563E0,4.286380653E1
1.598234013E1,3.711354542E1,-1.019672315E1,5.717546629E0,3.891116493E1
1.599239113E1,3.038048595E1,-1.104816663E1,3.858700985E0,3.255649683E1
1.600244313E1,1.992013992E1,-7.435498348E0,1.558054930E0,2.131961879E1
1.601249412E1,1.399746478E1,-5.700845811E0,-8.823886961E-1,1.513959289E1
1.602254613E1,1.234954867E1,-5.290108148E0,-2.417407351E0,1.365065767E1
1.603259712E1,1.130342566E1,-3.507174859E0,-2.854713593E0,1.217444441E1
1.604264813E1,9.936377041E0,-1.433378551E0,-2.263291703E0,1.029119294E1
1.605270013E1,8.057291261E0,-4.083470294E-1,-7.820598310E-1,8.105449237E0
1.606275113E1,5.951465076E0,-6.999891892E-2,8.334181919E-1,6.009943617E0
1.607280313E1,3.486674228E0,3.352102022E-1,1.851903829E0,3.962172491E0
1.608285413E1,9.251137161E-1,7.800704621E-1,1.919025772E0,2.268701220E0
1.609290613E1,-1.430968621E0,9.232673116E-1,1.302936818E0,2.144233680E0
1.610295712E1,-4.067872846E0,6.344717225E-1,2.548141298E-1,4.124933224E0
1.611300913E1,-6.660234151E0,5.121781573E-1,-1.016623811E0,6.756816513E0
1.612306012E1,-8.864207606E0,5.676273034E-1,-2.296048390E0,9.174323705E0
1.613311212E1,-1.070916845E1,5.184128972E-1,-3.310335653E0,1.122111238E1
1.614316313E1,-1.265300981E1,4.254995807E-1,-4.161548749E0,1.332659728E1
1.615321512E1,-1.400423352E1,1.381879419E-1,-4.935437096E0,1.484911417E1
1.616326613E1,-1.468271869E1,-1.537447880E-1,-5.413114854E0,1.564952645E1
1.617331813E1,-1.495285304E1,-4.064869570E-1,-5.563245624E0,1.595940937E1
1.618336913E1,-1.480021264E1,-5.554421080E-1,-5.263344857E0,1.571806633E1
1.619342113E1,-1.442738950E1,-5.429880502E-1,-4.449641649E0,1.510773691E1
1.620347213E1,-1.408452982E1,-8.259523939E-1,-3.341539904E0,1.449903674E1
1.621352413E1,-1.469918913E1,-1.363635594E0,-2.404632939E0,1.495686874E1
1.622357512E1,-1.558970955E1,-1.330114823E0,-1.108818614E0,1.568558982E1
1.623362713E1,-1.537294391E1,-9.352293992E-1,4.884073985E-1,1.540910770E1
1.624367812E1,-1.423866710E1,-4.890431370E-1,1.833719573E0,1.436458602E1
1.625373012E1,-1.232728949E1,-1.561592495E-1,2.896557437E0,1.266398424E1
1.626378113E1,-1.051824517E1,-4.322002797E-2,3.772914730E0,1.117453511E1
1.627383213E1,-9.204544208E0,-5.935220816E-2,4.601592658E0,1.029086059E1
1.628388413E1,-8.047544537E0,9.191043681E-2,5.279376168E0,9.625135497E0
1.629393513E1,-7.228603393E0,2.654746821E-1,5.505534775E0,9.090329861E0
1.630398713E1,-6.915404304E0,3.916914183E-1,5.099217607E0,8.601061507E0
1.631403812E1,-6.878997200E0,3.987860643E-1,4.354050783E0,8.150913509E0
1.632409013E1,-7.061623871E0,2.748535794E-1,3.369300145E0,7.829065056E0
1.633414113E1,-7.656642968E0,4.864655016E-2,2.251828237E0,7.981057476E0
1.634419312E1,-8.593411939E0,-1.574904961E-1,9.943125898E-1,8.652178312E0
1.635424413E1,-9.425273675E0,-3.056554141E-1,1.583133638E-1,9.431557253E0
1.636429613E1,-1.030332725E1,-6.146340933E-1,-2.950779472E-1,1.032586066E1
1.637434713E1,-1.077281890E1,-8.284266432E-1,-5.557170733E-1,1.081890656E1
1.638439913E1,-1.066651652E1,-7.324560003E-1,-6.176320338E-1,1.070946011E1
1.639445013E1,-9.495119836E0,-5.395829242E-1,-2.956077415E-1,9.515032021E0
1.640450213E1,-7.328458634E0,-1.283839154E-1,3.946163783E-1,7.340198258E0
1.641455312E1,-4.744957030E0,5.656254360E-1,7.994383407E-1,4.844961404E0
1.642460513E1,-1.945405485E0,1.358793369E0,1.038959005E0,2.590435819E0
1.643465612E1,1.099250230E0,2.278829509E0,7.327777433E-1,2.634080147E0
1.644470788E1,4.723224683E0,2.903252791E0,-1.794392809E-1,5.547064687E0
1.645475887E1,8.995886902E0,2.948169056E0,-1.075817513E0,9.527594936E0
1.646480988E1,1.415400994E1,2.653120308E0,-8.359944020E-1,1.442476799E1
1.647486188E1,2.046927065E1,2.596347060E0,8.661416227E-1,2.065144693E1
1.648491288E1,2.673291331E1,2.407808123E0,3.026991277E0,2.701127302E1
1.649496488E1,3.095948660E1,1.744794094E0,5.072996938E0,3.142084364E1
1.650501588E1,3.315011086E1,1.530947238E0,6.676824456E0,3.385045989E1
1.651506788E1,3.367160532E1,1.442226704E0,7.181818067E0,3.445918649E1
1.652511887E1,3.263795091E1,1.389126092E0,6.184678348E0,3.324779326E1
1.653517088E1,3.006700503E1,1.179344586E0,4.597557494E0,3.043933606E1
1.654522187E1,2.657849536E1,9.042296545E-1,3.181660948E0,2.678352130E1
1.655527387E1,2.277383843E1,8.274152941E-1,1.904102215E0,2.286827362E1
1.656532488E1,1.890073166E1,5.874743613E-1,6.491339082E-1,1.892099782E1
1.657537688E1,1.513076042E1,3.069283164E-1,-4.906746563E-1,1.514182544E1
1.658542788E1,1.142557165E1,2.680328206E-1,-1.248605952E0,1.149671892E1
1.659547988E1,8.009665105E0,3.775707945E-1,-1.582513541E0,8.173227264E0
1.660553088E1,4.987881358E0,3.917730966E-1,-1.622411724E0,5.259721134E0
1.661558288E1,2.417668721E0,5.275984710E-2,-1.555979753E0,2.875583182E0
1.662563388E1,2.145343423E-1,-3.461555686E-1,-1.434596526E0,1.491279939E0
1.663568588E1,-1.821732781E0,-6.518522787E-1,-1.655871831E0,2.546671011E0
1.664573687E1,-3.765092910E0,-1.005972230E0,-2.288362809E0,4.519348304E0
1.665578888E1,-5.661878212E0,-1.236320660E0,-3.355097258E0,6.696419287E0
1.666583988E1,-7.555163956E0,-1.188830743E0,-4.580475438E0,8.914851439E0
1.667589088E1,-9.339969231E0,-9.910988139E-1,-5.745258338E0,1.101023594E1
1.668594288E1,-1.078686391E1,-1.037050766E0,-6.825254272E0,1.280687328E1
1.669599388E1,-1.173683414E1,-1.303427692E0,-7.624402590E0,1.405644743E1
1.670604588E1,-1.245204334E1,-1.655745239E0,-7.836302762E0,1.480548941E1
1.671609688E1,-1.292352305E1,-1.959981424E0,-7.598642097E0,1.511946881E1
1.672614888E1,-1.319665000E1,-2.253361815E0,-7.171245131E0,1.518736210E1
1.673619987E1,-1.372429924E1,-2.519804376E0,-7.157718183E0,1.568243390E1
1.674625187E1,-1.410581602E1,-2.822092269E0,-7.637797977E0,1.628724066E1
