Time (s),Linear Acceleration x (m/s^2),Linear Acceleration y (m/s^2),Linear Acceleration z (m/s^2),Absolute acceleration (m/s^2)
-0.002222708,0.655193524,0.738689278,-2.652498749,2.83031624
0.007829292,1.044833264,0.886732593,-2.272045569,2.653330418
0.017880292,1.290092532,1.168231003,-1.295935947,2.169919905
0.027932292,1.798821636,1.410644284,-0.169128959,2.292221887
0.037984292,2.352081234,1.450455637,0.639863732,2.836464927
0.048035292,2.542144248,1.523528291,0.97597923,3.120283847
0.058087292,2.369524648,1.439405861,0.920270467,2.921204208
0.068139292,1.977070058,1.016207489,0.425718815,2.263342701
0.078190292,1.336516939,0.655854405,-0.162340341,1.49759037
0.088242292,0.651615028,0.523057998,-0.47931147,0.963291908
0.098294292,0.283341452,0.472969287,-0.55632924,0.783252545
0.108346292,0.187435421,0.531939627,-0.615021252,0.834471656
0.118397292,0.234231273,0.643267104,-0.720638339,0.993970056
0.128449292,0.384743428,0.789915858,-0.939694333,1.286475809
0.138501292,0.583998703,0.9456544,-1.262819656,1.682269364
0.148552292,0.648209025,1.108960994,-1.529574897,1.997390495
0.158604292,0.611725981,1.259208708,-1.717675146,2.215902334
0.168656292,0.69598772,1.316091007,-1.826950836,2.356744323
0.178708292,0.646906484,1.300208507,-1.824666914,2.332046206
0.188759292,0.493366349,1.303811561,-1.771411643,2.2541593
0.198811292,0.327195643,1.291035103,-1.550890921,2.044282582
0.208863292,0.275700092,1.225846542,-1.272643563,1.78838808
0.218914292,0.26645177,1.204365041,-0.993158349,1.583620916
0.228966292,0.343076023,1.205394444,-0.851921194,1.515403129
0.239018292,0.427433365,1.210927664,-0.81451831,1.520685755
0.249069292,0.382376402,1.207159133,-0.931654412,1.572076597
0.259121292,0.311949028,1.162725849,-1.145293545,1.661607926
0.269173292,0.068994002,1.076923514,-1.458152327,1.814037661
0.279225292,-0.136231573,1.015422792,-1.646743158,1.939434329
0.289276292,-0.225812306,1.059400578,-1.228747931,1.638029994
0.299328292,-0.022559819,1.226871559,-0.144339688,1.235539038
0.309380292,0.26632061,1.509190041,0.951330292,1.803776752
0.319431292,0.551261495,1.731825408,1.825990139,2.576305197
0.329483292,0.536974189,1.877896457,2.664798952,3.303935507
0.339535292,0.1133806,1.662210213,3.237560037,3.641097767
0.349586292,-0.17218031,1.431388159,3.422135001,3.713425115
0.359638292,-0.298983504,1.619083197,3.229216645,3.624729187
0.369690292,-0.428756955,1.607029454,2.587886431,3.076285483
0.379742292,-0.603232205,1.347025993,1.723814723,2.269340283
0.389793292,-0.708609666,1.287069229,0.922802312,1.735004025
0.399845292,-0.479324407,1.609252566,0.370055661,1.719414696
0.409897292,-0.355481476,2.246402313,0.184320025,2.281811627
0.419948292,-0.357485682,2.756894352,0.349656479,2.801878323
0.430000292,-0.413644132,2.949090284,0.76988242,3.075866368
0.440052292,-0.945657397,2.571591411,1.410824963,3.081846423
0.450103292,-0.586786363,2.271009735,1.907571076,3.023347625
0.460155292,0.34868321,1.959445819,2.275784864,3.023277137
0.470207292,0.391905975,1.466069749,2.550555468,2.967875334
0.480259292,-0.182220509,1.272480426,2.526266134,2.834507246
0.490310292,0.086215075,0.302698368,1.89683208,1.922766569
0.500362292,0.537141858,-0.220805189,1.393018438,1.509230491
0.510414292,0.819394888,-0.375994678,0.932611016,1.297128863
0.520465292,0.951310485,-0.662094262,0.300560333,1.197370855
0.530517292,0.871531001,-1.135212945,-0.293343115,1.460932887
0.540569292,0.758801215,-1.669578289,-0.771412636,1.989559852
0.550621292,0.650807966,-1.830584296,-0.946166616,2.160976895
0.560672292,0.618347733,-1.569332455,-0.65676394,1.810109705
0.570724292,0.708540596,-1.154778898,-0.142359236,1.36228126
0.580776292,0.733412824,-0.811129264,0.312282831,1.137253542
0.590827292,0.53851588,-0.4620271,0.796110106,1.066423788
0.600879292,0.259454042,-0.466611025,1.15479644,1.272240962
0.610931292,-0.051619896,-0.724441076,1.269538107,1.462602643
0.620982292,-0.204149687,-1.044424105,1.165191035,1.578026918
0.631034292,-0.087517616,-1.375823823,0.825573056,1.606898066
0.641086292,0.077054389,-1.558276832,0.384136925,1.606774795
0.651138292,0.256242897,-1.563114233,-0.077810068,1.585888059
0.661189292,0.302004157,-1.469971596,-0.536141728,1.593571761
0.671241292,0.3009692,-1.390576933,-1.08668281,1.790297795
0.681293292,0.29788874,-1.416762519,-1.871448732,2.366067221
0.691344292,0.085772514,-1.528117771,-2.755810863,3.152299852
0.701396292,-0.118492363,-1.577984872,-3.538862967,3.876548438
0.711448292,-0.150146265,-1.375358531,-4.024251448,4.255438251
0.721500292,-0.034042343,-0.988189532,-4.178074735,4.293481795
0.731551292,0.0344841,-0.405884913,-4.031496148,4.05202331
0.741603292,-0.062312608,0.527317549,-3.479279839,3.519564584
0.751655292,-0.367201488,2.070355952,-1.192490516,2.417280358
0.761706292,-0.13813835,4.129584068,2.166235524,4.665310614
0.771758292,2.012536345,2.907932318,0.42913008,3.562376388
0.781810292,3.323961712,0.732160424,0.522573849,3.443524906
0.791861292,3.285568017,-0.303611703,-0.64379657,3.361786918
0.801913292,2.700373996,-0.401230383,-1.326301707,3.035141143
0.811965292,2.126013259,-0.464717843,-1.664736795,2.739934971
0.822017292,0.871115776,-0.385233424,-1.687516378,1.937771661
0.832068292,-0.388130793,-0.08271749,-1.561537532,1.611175707
0.842120292,-1.251186182,0.189507236,-1.186855554,1.734936875
0.852172292,-1.207370583,0.174442908,-0.724417979,1.418786616
0.862223292,-0.615745137,-0.02782456,-0.284048381,0.678675005
0.872275292,0.064622331,-0.130888899,0.065854266,0.160139733
0.882327292,0.473979686,-0.143546513,0.206718954,0.536651722
0.892379292,0.495828611,-0.070783761,0.219170015,0.546710022
0.902430292,0.474502793,0.002192414,0.272167423,0.547021767
0.912482292,0.434087204,-0.113892359,0.550709481,0.710411221
0.922534292,0.355651666,-0.277210647,0.470324299,0.651566418
0.932585292,0.226865133,-0.113341551,0.406536439,0.479151304
0.942637292,0.446090989,0.168063888,0.48927571,0.683105674
0.952689292,0.793794316,0.326058871,0.435962552,0.962542025
0.962741292,1.112528965,0.380671281,0.395670558,1.240639557
0.972792292,1.276140344,0.417139195,0.467759711,1.421737822
0.982844292,1.297495691,0.398002135,0.612605767,1.489022026
0.992896292,1.232158904,0.301189494,0.766444842,1.48201497
1.002947292,0.970515811,0.124676963,0.851171581,1.296895657
1.012999292,0.697728436,0.112236135,0.798712116,1.066472206
1.023051292,0.612961095,0.253320093,0.411529961,0.780544222
1.033102292,0.640597997,0.264981195,-0.169321332,0.713617923
1.043154292,0.856255516,0.24834499,-0.67031837,1.115426134
1.053206292,1.160323155,0.221390495,-1.051807677,1.581664618
1.063258292,1.383415848,0.242003684,-1.017130764,1.734058875
1.073309292,1.515314853,0.270679892,-0.518174404,1.624177152
1.083361292,1.524788366,0.183305825,0.398413487,1.586604517
1.093413292,1.447908444,-0.066870805,1.441515829,2.044230528
1.103464292,1.259677947,-0.292249393,2.28198876,2.622912682
1.113516292,1.080620563,-0.483532282,2.667079951,2.918023257
1.123568292,0.846019892,-0.713768738,2.487152354,2.722341327
1.133620292,0.558138588,-0.941343248,1.809146649,2.114392913
1.143671292,0.279667501,-1.056994449,0.78925366,1.348470436
1.153723292,0.161632097,-1.001060861,-0.281333519,1.052329004
1.163775292,0.226903323,-0.780874016,-1.174312692,1.428376576
1.173826292,0.448792001,-0.498991736,-1.768052418,1.89114155
1.183878292,0.9338583,-0.194265262,-1.986962816,2.204053436
1.193930292,1.531691296,0.086668307,-1.842379884,2.397488949
1.203982292,2.129856049,0.362703372,-1.30044415,2.521704882
1.214033292,2.730101826,0.47313681,-0.495757933,2.814798456
1.224085292,3.039406085,0.322723035,0.298275241,3.071010848
1.234137292,2.954815293,0.090025779,1.048509847,3.136624134
1.244188292,2.697745673,-0.172803349,1.59477486,3.138630205
1.254240292,2.245272338,-0.461029565,1.768171116,2.894861867
1.264292292,1.617664224,-0.763958606,1.560663958,2.374056082
1.274344292,0.893877159,-1.074650117,1.033192481,1.73821056
1.284395292,0.245135892,-1.261153492,0.367679937,1.336333892
1.294447292,-0.213963435,-1.282922968,-0.296370218,1.333981634
1.304499292,-0.481722423,-1.211672891,-0.918834391,1.595137714
1.314550292,-0.585311549,-1.190134965,-1.591004575,2.071305482
1.324602292,-0.553140754,-1.12890263,-2.161203411,2.500237194
1.334654292,-0.646481757,-0.932156103,-2.565529017,2.80513686
1.344706292,-0.71919817,-0.67803114,-2.79743076,2.966916091
1.354757292,-0.622606626,-0.286354815,-2.725410604,2.810249287
1.364809292,-0.428055362,0.14542113,-2.399019027,2.441243738
1.374861292,-0.155061873,0.477633611,-2.016409394,2.078000216
1.384912292,0.0496672,0.682039407,-1.661161807,1.796413965
1.394964292,0.275578689,0.758170154,-1.423612239,1.63628769
1.405016292,0.422712834,0.750748284,-1.241649812,1.511291958
1.415068292,0.361691803,0.685646262,-1.121498886,1.363338369
1.425119292,0.154432347,0.563893198,-0.997313966,1.156053647
1.435171292,-0.097624966,0.47942052,-0.853329788,0.983639363
1.445223292,-0.323996704,0.422283283,-0.692770509,0.87362922
1.455274292,-0.430069655,0.458007724,-0.43228056,0.762625377
1.465326292,-0.391530364,0.475303496,-0.163535512,0.637144648
1.475378292,-0.27967386,0.493748538,0.101349204,0.576434513
1.485430292,-0.180263154,0.513684327,0.333048048,0.63819072
1.495481292,-0.140380757,0.539038731,0.524215747,0.764899771
1.505533292,-0.136623044,0.643071807,0.68167074,0.947038649
1.515585292,-0.2087714,0.740380293,0.678223806,1.025541811
1.525636292,-0.314810071,0.807665373,0.6401099,1.077575714
1.535688292,-0.419417417,0.875899749,0.690178438,1.191409928
1.545740292,-0.412270219,0.898191966,0.80538262,1.274894782
1.555792292,-0.368886291,0.923429718,1.046977292,1.443939399
1.565843292,-0.275085257,0.936433926,1.310065743,1.633662342
1.575895292,-0.13464727,1.02882578,1.565697241,1.878302484
1.585947292,0.107451797,1.217639683,1.810746447,2.184718513
1.595998292,0.294707928,1.361051417,1.896722737,2.353055644
1.606050292,0.535489617,1.422576113,1.831622177,2.380191531
1.616102292,0.794987513,1.459609745,1.774866178,2.431587075
1.626154292,0.939310244,1.483033107,1.792568623,2.508982503
1.636205292,0.935182914,1.448468753,1.955667933,2.607156665
1.646257292,0.907891035,1.253821668,2.329814891,2.797207953
1.656309292,0.881868806,0.899611085,2.793456992,3.064375085
1.666360292,0.79683421,0.448056056,3.152452059,3.282324325
1.676412292,0.528875978,0.022336802,3.452483804,3.492828818
1.686464292,0.200047135,-0.371339563,3.671591254,3.695740016
1.696516292,-0.194311601,-0.763295677,3.453811707,3.542483958
1.706567292,-0.62087373,-1.141038526,2.661187127,2.961312214
1.716619292,-0.923549732,-1.276762927,1.468375599,2.153878961
1.726671292,-1.06128499,-1.183781088,0.276679135,1.613757986
1.736722292,-1.020869474,-1.05067127,-0.78326845,1.661202596
1.746774292,-0.881531933,-0.813486861,-1.65125487,2.040956165
1.756826292,-0.719110242,-0.553727229,-2.216746697,2.395349516
1.766878292,-0.446085434,-0.322082765,-2.426888611,2.488477014
1.776929292,-0.070418237,-0.141647922,-2.266724603,2.272237507
1.786981292,0.439331571,0.080782208,-1.746083844,1.80231706
1.797033292,1.006930443,0.089185826,-0.883687363,1.342671361
1.807084292,1.496297223,-0.124959676,0.090850528,1.504252013
1.817136292,1.688632465,-0.375242726,0.861647453,1.932543153
1.827188292,1.510996538,-0.716876533,1.275440286,2.103276117
1.837240292,1.094986806,-1.038234535,1.434346558,2.081892673
1.847291292,0.48588279,-1.366157206,1.318067658,1.959533094
1.857343292,-0.134609994,-1.579576777,0.95137707,1.84886478
1.867395292,-0.660569235,-1.67642304,0.455298125,1.858505396
1.877446292,-0.987768971,-1.634739117,-0.019123319,1.910085134
1.887498292,-0.935990195,-1.565094101,-0.407361481,1.868566447
1.897550292,-0.728185925,-1.674853647,-0.861248088,2.019192351
1.907602333,-0.474258562,-1.701797325,-1.287638163,2.186103236
1.917653333,-0.261517725,-1.629289804,-1.737951536,2.396550089
1.927705333,0.022785905,-1.478160914,-2.114160222,2.579758192
1.937757333,0.351958821,-1.211167984,-2.346233287,2.663759287
1.947808333,0.69613317,-0.958632587,-2.446435853,2.718202753
1.957860333,0.9688677,-0.744564268,-2.527526209,2.807395467
1.967912333,1.126179947,-0.594820876,-2.541211032,2.842507108
1.977964333,1.192072951,-0.53726761,-2.56331877,2.877550612
1.988015333,1.09957899,-0.618563788,-2.740992849,3.01740566
1.998067333,0.871851502,-0.731951532,-3.033334336,3.239906678
2.008119333,0.598448123,-0.761141125,-3.359510736,3.496253474
2.018171333,0.412721258,-0.766808831,-3.6431656,3.745796338
2.028222333,0.234829699,-0.696470335,-3.835896844,3.905677984
2.038274333,0.189519698,-0.489909256,-3.744968548,3.781629043
2.048326333,0.159872688,-0.303480725,-3.355264488,3.372752528
2.058377333,-0.061100041,-0.210142499,-2.623883645,2.632994202
2.068429333,-0.330766793,-0.143648255,-1.673497093,1.711909464
2.078481333,-0.561861108,-0.045351005,-0.595461146,0.819950361
2.088533333,-0.649116367,-0.006589227,0.34553887,0.735386012
2.098584333,-0.629766614,0.020597694,0.956717917,1.145573841
2.108636333,-0.485887358,0.096747445,1.269405375,1.362657917
2.118688333,-0.224191567,0.147593371,1.323375176,1.350321264
2.128739333,-0.266831364,0.106526621,1.194127736,1.228205173
2.138791333,-0.606552547,0.154131435,1.014210665,1.191757427
2.148843333,-0.837159021,0.324374288,0.932553129,1.294491886
2.158895333,-0.982421546,0.43377774,0.912143422,1.409014139
2.168946333,-1.06353953,0.538127735,1.141558928,1.650410427
2.178998333,-1.113915778,0.595599579,1.571660231,2.016348953
2.189050333,-1.201118302,0.6501484,2.265320102,2.645194375
2.199101333,-1.145283386,0.66660495,3.02903137,3.306216453
2.209153333,-1.049649908,0.58714012,3.661492528,3.853962374
2.219205333,-0.86306511,0.569123533,4.225600319,4.350227699
2.229257333,-0.54689008,0.643725672,4.706563627,4.781758325
2.239308333,-0.205748901,0.736226139,4.922115385,4.981122504
2.249360333,0.143011785,0.722581515,4.865061763,4.920508345
2.259412333,0.456656287,0.754987369,4.685510727,4.767866574
2.269463333,0.540306408,0.730703297,4.400764773,4.493616463
2.279515333,0.45228425,0.654837575,3.959910441,4.039091976
2.289567333,0.142419316,0.559421686,3.387986092,3.436813298
2.299619333,-0.268304387,0.374705951,2.78005225,2.817992602
2.309670333,-0.524061381,-0.01510365,2.019911292,2.08684213
2.319722333,-0.629410446,-0.414897811,1.109716746,1.34155468
2.329774333,-0.586966019,-0.706101138,0.270660011,0.957269432
2.339826333,-0.36949568,-0.945568446,-0.570006462,1.16427407
2.349877333,-0.159287729,-1.017418739,-1.363019298,1.708313519
2.359929333,0.135257007,-0.941145027,-2.00604462,2.219969242
2.369981333,0.597288547,-0.698639652,-2.396024083,2.566277923
2.380032333,1.233182605,-0.362614202,-2.428889528,2.748041618
2.390084333,1.869932549,0.004716949,-2.182531714,2.874041522
2.400136333,2.400348976,0.286147824,-1.79535833,3.011123929
2.410188333,2.742938218,0.355701916,-1.383947652,3.092821531
2.420239333,2.794329104,0.25946844,-0.945719304,2.96141588
2.430291333,2.674587775,0.025544146,-0.637686229,2.749675617
2.440343333,2.316414096,-0.328222633,-0.54045288,2.401165066
2.450394333,1.849213817,-0.738445157,-0.630285408,2.088576714
2.460446333,1.405715666,-1.183110705,-0.931148627,2.059811943
2.470498333,0.990910387,-1.650995546,-1.366431148,2.361106472
2.480550333,0.574397356,-1.961769795,-1.89524573,2.787549
2.490601333,0.28561421,-2.059068925,-2.385434775,3.164117473
2.500653333,0.137658586,-2.000676291,-2.889059553,3.516862324
2.510705333,0.057819498,-1.877070245,-3.369786049,3.857744654
2.520756333,0.03281197,-1.710912257,-3.825844311,4.191107499
2.530808333,0.055197547,-1.521055503,-4.118125572,4.390400305
2.540860333,0.205391325,-1.300695873,-4.223988242,4.424485508
2.550912333,0.359382701,-0.991577847,-4.088806463,4.222643822
2.560963333,0.518186829,-0.702451452,-3.729010327,3.829813788
2.571015333,0.576529324,-0.579123733,-3.271338817,3.371858244
2.581067333,0.566028346,-0.58482126,-2.786142125,2.902583666
2.591119333,0.563007016,-0.614473076,-2.270244042,2.418380051
2.601170333,0.569264012,-0.616497382,-1.830248666,2.01344002
2.611222333,0.578166727,-0.590566442,-1.479026887,1.694274481
2.621274333,0.388538965,-0.504258908,-1.238979388,1.392949927
2.631325333,0.090447838,-0.34915742,-1.025520349,1.087098754
2.641377333,-0.176605355,-0.242339753,-0.735531782,0.794307881
2.651429333,-0.35958761,-0.165694889,-0.273860192,0.481411934
2.661481333,-0.400428949,-0.081978841,0.266251211,0.487804859
2.671532333,-0.428983023,0.018134262,0.810069748,0.91682511
2.681584333,-0.396359726,0.186851869,1.348098958,1.417527937
2.691636333,-0.235813237,0.388803003,1.735496875,1.794080562
2.701687333,-0.184533083,0.655199225,1.917428312,2.034667004
2.711739333,-0.143766661,0.950635935,1.884720157,2.11578534
2.721791333,-0.025321367,1.245473891,1.697090608,2.105222772
2.731843333,0.136952498,1.556913261,1.449377995,2.131532656
2.741894333,0.322480083,1.862126078,1.227794834,2.253660819
2.751946333,0.594390594,2.133908023,1.177637419,2.508723484
2.761998333,0.838803989,2.38407559,1.324375634,2.853310248
2.772050333,1.038014241,2.553405401,1.700484332,3.238672516
2.782101333,1.17617291,2.54502751,2.135887306,3.524565551
2.792153333,1.128529285,2.483639347,2.544654458,3.73059098
2.802205333,0.959427005,2.514488087,2.943632201,3.988498596
2.812256333,0.793081102,2.502474983,3.169442899,4.11542549
2.822308333,0.674144569,2.288151579,3.11681328,3.924873701
2.832360333,0.600646457,2.060357652,2.832543874,3.553752189
2.842412333,0.564807337,1.948269159,2.490755993,3.212261736
2.852463333,0.531810769,1.94158316,2.339866839,3.086672105
2.862515333,0.529834483,2.036530686,2.470373184,3.245138747
2.872567333,0.463555709,2.093410939,2.867474556,3.580455778
2.882618333,0.222002918,1.960404324,3.389380653,3.921781689
2.892670333,-0.180762725,1.60509768,3.868464081,4.192138842
2.902722042,-0.498308196,1.064058178,4.156690298,4.319560753
2.912774042,-0.706684251,0.409347049,4.004118315,4.08655492
2.922825042,-0.919292155,-0.15511289,3.50355397,3.625472176
2.932877042,-1.248070932,-0.559922793,2.667864647,2.998115468
2.942929042,-1.489919372,-0.776342716,1.617460887,2.332112233
2.952981042,-1.634538996,-0.838060077,0.523053905,1.909881622
2.963032042,-1.655629026,-0.807514369,-0.53049858,1.916928708
2.973084042,-1.613159967,-0.731404525,-1.536862282,2.345033759
2.983136042,-2.077564253,-0.452811888,-1.58454574,2.651810143
2.993187042,-1.936299324,-0.006854691,-1.283608262,2.323134139
3.003239042,-0.970498781,-0.100898676,-0.61554107,1.153663397
3.013291042,0.048991627,-0.245359401,0.130785257,0.282322863
3.023343042,0.567831883,-0.472685113,0.80402782,1.091936353
3.033394042,0.837132124,-0.709327777,1.685668073,2.011321193
3.043446042,0.859840809,-1.037110408,2.502208934,2.84182578
3.053498042,0.582199807,-1.382194657,3.144646611,3.483994976
3.063549042,0.326764484,-1.961481235,3.190958898,3.759840735
3.073601042,-0.025100196,-2.591874525,2.60392242,3.67407887
3.083653042,-0.412831698,-2.914767713,1.577409799,3.339838694
3.093705042,-0.735662613,-2.910954452,0.452541162,3.036387459
3.103756042,-0.860488242,-2.712828273,-0.555359187,2.899707068
3.113808042,-0.750952644,-2.391751522,-1.411095105,2.876733323
3.123860042,-0.603812797,-2.114523042,-2.194988038,3.107051669
3.133912042,-0.597034851,-1.890107197,-2.7914245,3.423595561
3.143963042,-0.673484126,-1.7376276,-3.157116383,3.666103436
3.154015042,-0.839348584,-1.713282718,-3.28541482,3.799183367
3.164067042,-0.967606456,-1.788417393,-3.314252118,3.888311475
3.174118042,-0.865430309,-1.775666077,-3.157537383,3.724513654
3.184170042,-0.904051022,-1.591453349,-2.781925113,3.330035938
3.194222042,-1.237764045,-1.729970379,-2.538854604,3.312195653
3.204274042,-1.59683805,-2.342354245,-2.622152869,3.861631887
3.214325042,-1.780165217,-2.929018547,-2.830650546,4.44530318
3.224377042,-1.765320014,-3.108900535,-3.173706104,4.780588638
3.234429042,-1.887990359,-3.081949257,-3.385993946,4.952562348
3.244481042,-1.965323733,-2.854069229,-3.352947822,4.821873872
3.254532042,-1.806438804,-2.483861834,-3.093893364,4.35946865
3.264584042,-1.404167324,-2.127989764,-2.606549574,3.646111215
3.274636042,-0.969843746,-1.91259208,-2.10292889,3.003483856
3.284687042,-0.747715771,-1.884841195,-1.582568797,2.57220318
3.294739042,-0.819336562,-2.045158399,-1.197804465,2.507732206
3.304791042,-1.182714848,-2.324010067,-0.892527183,2.75616436
3.314843042,-1.694185273,-2.6123275,-0.533984106,3.159059628
3.324894042,-2.288799889,-2.874295625,-0.161436946,3.677803986
3.334946042,-2.597146082,-2.992510246,0.233531946,3.9692345
3.344998042,-2.556500332,-2.936114143,0.487281809,3.923506566
3.355050042,-2.106562204,-2.90906814,0.438514861,3.618366626
3.365101042,-1.598143002,-2.824564764,0.250767784,3.255013309
3.375153042,-1.447606874,-2.548349606,0.042510427,2.931118986
3.385205042,-1.295722962,-2.286415687,-0.239121299,2.6388963
3.395256042,-1.118601152,-2.003857176,-0.490743361,2.346815111
3.405308042,-1.037360084,-1.82681138,-0.557068913,2.173403215
3.415360042,-1.184272985,-1.72428747,-0.468422785,2.143616031
3.425412042,-1.545220145,-1.605157468,-0.464427382,2.275945647
3.435463042,-1.821240445,-1.477910653,-0.436675912,2.385754076
3.445515042,-1.45143563,-1.396026245,-0.129290124,2.01798677
3.455567042,-0.748276666,-1.289827945,0.335850618,1.528518804
3.465619042,-0.192610207,-1.202210635,0.690639199,1.399782699
3.475670042,0.082381129,-1.167696275,1.047196562,1.570643779
3.485722042,0.119691043,-1.16280274,1.577157199,1.963125311
3.495774042,0.255970636,-1.230230784,2.521883061,2.817602336
3.505825042,0.499463314,-1.211855178,4.04136274,4.248607933
3.515877042,0.797776562,-0.857689911,5.548321191,5.670621436
3.525929042,1.476169353,-0.245080343,6.262976659,6.439255932
3.535981042,2.156140307,0.438153211,6.250850703,6.626767973
3.546032042,2.298563277,1.166747564,5.816472162,6.362078389
3.556084042,2.055440728,1.723229124,4.953910789,5.63343477
3.566136042,1.915894003,1.556803333,3.588369003,4.355534244
3.576188042,1.562359942,1.009730236,1.889968618,2.651887086
3.586239042,0.989114123,0.808605898,0.526114923,1.381661014
3.596291042,0.521952582,0.907502341,-0.019126242,1.047072495
3.606343042,0.743917859,0.958912231,-0.160464554,1.224203953
3.616395042,1.495139767,1.048735696,-0.160862165,1.833348335
3.626446042,2.282944195,1.261436351,-0.161339298,2.613252042
3.636498042,2.886404624,1.816689557,0.163212746,3.414429821
3.646550042,3.380295542,2.179319839,0.805094352,4.101708159
3.656601042,3.630455215,2.155659812,1.305638232,4.419475702
3.666653042,3.536260956,2.030324598,1.435260478,4.322884704
3.676705042,3.345156114,1.858250543,1.10091961,3.981857418
3.686757042,2.845675844,1.636875251,0.563759297,3.330924217
3.696808042,2.286437906,1.278316532,0.017665608,2.619580792
3.706860042,1.62424775,0.857705698,-0.348485282,1.869567279
3.716912042,0.855066119,0.496625952,-0.538303444,1.125853455
3.726964042,0.210966371,0.18967549,-0.543217444,0.612836677
3.737015042,-0.342989484,0.020369653,-0.541390189,0.641217627
3.747067042,-0.793726196,-0.203108006,-0.51498007,0.967707915
3.757119042,-1.050622738,-0.460051619,-0.569927525,1.280731437
3.767171042,-1.335528906,-0.733013971,-0.825758997,1.732866083
3.777222042,-1.632528577,-1.01950181,-1.132480541,2.233169423
3.787274042,-1.742652698,-1.283788064,-1.377165467,2.565450241
3.797326042,-1.854067006,-1.415999749,-1.332623132,2.686727408
3.807377042,-1.76911778,-1.330080178,-1.065607105,2.456503512
3.817429042,-1.516766863,-1.216694773,-0.842331176,2.11906812
3.827481042,-1.275638507,-1.233181582,-0.579445038,1.866479833
3.837533042,-1.02223246,-1.267602971,-0.198305395,1.640457718
3.847584042,-0.891873172,-1.294218912,0.048220818,1.572502971
3.857636042,-0.844149368,-1.481436817,0.165144666,1.713042894
3.867688042,-0.842646925,-1.683871223,0.392458098,1.923408302
3.877740042,-0.941016973,-1.819092471,0.429808357,2.092688602
3.887791042,-0.927915117,-1.904085551,0.152050411,2.1236025
3.897843042,-0.806894125,-1.905824513,-0.025203838,2.069753714
3.907894667,-0.864258819,-1.879347151,-0.370199502,2.101413023
3.917946667,-1.079849169,-1.84312979,-0.351220025,2.164845758
3.927997667,-1.447139681,-1.845015224,-0.057941229,2.34555998
3.938049667,-1.816057473,-1.849819881,0.066229073,2.593122564
3.948101667,-1.964783158,-1.808067546,0.023559601,2.670212756
3.958153667,-1.603470839,-1.892297272,-0.133290204,2.483882842
3.968204667,-1.253743023,-1.777767274,-0.157678356,2.181098465
3.978256667,-1.069276818,-1.532930906,-0.170321206,1.876763008
3.988308667,-1.027924724,-1.338334984,-0.104851102,1.690787841
3.998359667,-1.004997792,-1.37574664,-0.06939534,1.705143716
4.008411667,-1.225554181,-1.631069112,-0.182654153,2.048348613
4.018463667,-1.263308483,-2.109359365,-0.170518257,2.464634199
4.028515667,-1.273194956,-2.14657894,0.129947936,2.499142454
4.038566667,-1.213634632,-2.111965762,0.407308272,2.469657553
4.048618667,-1.703026702,-1.924141208,0.911311948,2.726372829
4.058670667,-2.272660697,-2.090453563,1.493133295,3.429931454
4.068722667,-1.828039588,-1.647402139,2.394823065,3.433779267
4.078773667,-1.120365111,-1.049384883,3.000731431,3.37058092
4.088825667,-0.661551055,-0.572720155,2.518548394,2.666222831
4.098877667,-0.262449351,-0.304331495,2.158047668,2.19514625
4.108929667,-0.013282535,-0.143777186,2.056524802,2.06158739
4.118980667,0.007069284,0.006111217,2.070586771,2.070607857
4.129032667,0.053117276,-0.000170008,2.018640107,2.019338841
4.139084667,-0.403414611,0.048634801,2.254962344,2.291279962
4.149136667,-0.52427188,0.217043383,2.418516567,2.484188242
4.159187667,-0.285244136,0.159075256,2.724977911,2.744480601
4.169239667,-0.142433496,0.410175308,3.086931669,3.117319075
4.179291667,0.441065417,0.505719835,3.406004872,3.471478135
4.189343667,1.037602451,0.04495661,3.357239678,3.514213738
4.199394667,0.889387813,-0.678740846,3.244350994,3.431838165
4.209446667,-0.052396899,-1.440823226,2.617557542,2.988364853
4.219498667,-1.137746544,-1.811466532,1.52613995,2.627733118
4.229549667,-1.97794524,-1.578528956,0.752328786,2.640079476
4.239601667,-3.109657457,-1.084859355,0.383756564,3.315744023
4.249653667,-4.400715657,-0.799913719,-0.02804003,4.472912529
4.259705667,-5.410079564,-0.884409494,-0.217982738,5.486224341
4.269756667,-5.380045926,-1.533518551,-0.084682885,5.594974933
4.279808667,-5.760659319,-1.717328699,-0.129917238,6.01259446
4.289860667,-6.645333692,-1.372435069,-0.409833392,6.797940961
4.299912667,-7.602370867,-1.410501905,-0.771416437,7.770498165
4.309963667,-8.316756778,-2.3753609,-1.075973634,8.715991164
4.320015667,-8.922127785,-3.687488079,-1.665118326,9.796660226
4.330067667,-9.650990818,-4.329660292,-2.142313396,10.79245517
4.340119667,-9.956003805,-4.512996231,-2.21691919,11.15364862
4.350170667,-10.08213409,-4.641128606,-2.238675656,11.32259561
4.360222667,-9.754551439,-5.255846972,-1.996790231,11.25887971
4.370274667,-9.570842448,-6.735549797,-1.586204596,11.81036415
4.380326667,-8.829382174,-6.850253457,-0.705165437,11.1973756
4.390377667,-7.997185977,-6.705583402,0.041760193,10.43655002
4.400429667,-7.882365957,-7.042890562,0.08209023,10.57074923
4.410481667,-7.019197059,-7.52869361,0.276873847,10.29694197
4.420532667,-5.584928854,-7.862353277,0.473836137,9.655700391
4.430584667,-3.766331935,-8.4293455,0.672607555,9.256971574
4.440636667,-1.755541715,-8.783003229,1.063248339,9.019621359
4.450688667,0.016479208,-8.687795355,0.320416893,8.693717656
4.460739667,1.464901183,-8.636457387,-0.648218819,8.783764529
4.470791667,2.718128482,-8.89877459,-0.523813459,9.319377243
4.480843667,3.207326424,-9.88253471,0.013640348,10.38997696
4.490895667,3.463740279,-11.11149899,0.642405517,11.65656859
4.500946667,3.979437218,-12.0461881,1.124281649,12.73619165
4.510998667,4.797583725,-12.17390533,1.560996079,13.17791673
4.521050667,6.246409158,-11.80008581,1.940417225,13.49165933
4.531102667,8.081486455,-10.92203517,2.255057069,13.77267432
4.541153667,9.895251235,-9.651103669,2.0962081,13.98048237
4.551205667,11.42316377,-7.852817638,1.483582453,13.94117758
4.561257667,12.37713583,-5.547351138,0.558175279,13.57490905
4.571308667,12.87279729,-3.316957625,-0.48559825,13.30213981
4.581360667,12.81526185,-1.676217218,-1.274612321,12.98711966
4.591412667,12.15610874,-0.581026125,-1.662023102,12.28295127
4.601464667,11.68482433,0.299782653,-1.967757636,11.85314555
4.611515667,11.57546736,1.136897528,-2.019597881,11.80520039
4.621567667,11.2596417,1.763823711,-1.567988326,11.50431192
4.631619667,10.65735744,2.090904091,-0.838120011,10.89282299
4.641671667,9.851399456,2.124533182,-0.135837836,10.07879777
4.651722667,8.743219943,1.855861225,0.36793853,8.945585203
4.661774667,7.428441929,1.467794386,0.825929736,7.616976419
4.671826667,6.167570565,1.104314504,1.179262944,6.375664537
4.681878667,5.316341681,0.855220778,1.306068148,5.540821731
4.691929667,4.757125086,0.40284977,1.521466563,5.010727244
4.701981667,3.790260203,0.372654163,1.969200875,4.287504591
4.712033667,2.942689045,0.64120216,2.174777137,3.714864011
4.722084667,2.459701723,0.968638051,2.022674686,3.32860408
4.732136667,2.377387252,1.462193922,1.660565976,3.247685418
4.742188667,2.456014177,2.18730772,1.155710506,3.485970091
4.752240667,2.615165154,2.9528632,0.812527041,4.027243481
4.762291667,2.912035894,3.665300235,0.563423959,4.71506367
4.772343667,3.262964728,4.308124412,0.409005864,5.419793406
4.782395667,3.561613606,4.759670379,0.350503302,5.955032003
4.792447667,3.854822527,5.002331582,0.292139904,6.322050593
4.802498667,4.014694759,5.113524574,0.172930307,6.503523081
4.812550667,4.288595297,4.970588218,-0.060775959,6.565248706
4.822602667,4.657194416,4.386770632,-0.380957794,6.409239054
4.832654667,5.235508018,3.305846161,-0.50051574,6.212059163
4.842705667,5.78327518,2.088292724,-0.506568777,6.169590767
4.852757667,6.209068839,1.091618444,-0.476399483,6.322271992
4.862809667,6.72566274,0.414622554,-0.378960312,6.74907861
4.872861667,7.081009145,0.1235236,-0.265324354,7.087054791
4.882912667,7.309941087,0.019926726,-0.255030842,7.314415663
4.892964667,7.326843048,0.19470468,-0.263054392,7.334148661
4.903016667,7.186076594,0.708107171,-0.110784856,7.221730116
4.913068458,7.087385534,1.221140703,0.297248909,7.197956324
4.923120458,6.846535213,1.638627223,0.928921277,7.100918133
4.933172458,6.531065065,1.953268236,1.525143146,6.985422628
4.943224458,6.13419992,1.940769812,1.952942985,6.72376252
4.953275458,5.536661843,1.679271219,2.207741254,6.192632529
4.963327458,4.797541625,1.316585974,2.328306309,5.492796604
4.973379458,4.125008329,0.786760992,2.332509141,4.803674164
4.983431458,3.416815204,0.243392106,2.271432781,4.110142666
4.993482458,2.722234397,-0.249374392,2.265577233,3.550434889
5.003534458,2.033846376,-0.843384259,2.20749801,3.117831867
5.013586458,1.27807972,-1.384924137,2.093316067,2.816642468
5.023637458,0.655405047,-1.978431144,2.083773412,2.947177836
5.033689458,0.007516596,-2.692212453,2.101884577,3.4155502
5.043741458,-1.047909923,-3.083794638,2.019146476,3.832082602
5.053793458,-1.987159283,-3.115502919,1.901437347,4.15579408
5.063844458,-2.602703276,-3.001593311,1.785709255,4.355730052
5.073896458,-3.2596362,-2.658188674,1.651527204,4.518709693
5.083948458,-3.627418463,-2.227845882,1.564652928,4.535372175
5.094000458,-3.722149204,-1.967597423,1.458586629,4.455705249
5.104051458,-3.73669006,-1.782193324,1.393449962,4.368153894
5.114103458,-3.679487334,-1.675382236,1.444055275,4.293114058
5.124155458,-3.529202197,-1.562278959,1.569412562,4.166418064
5.134207458,-3.370377202,-1.39826339,1.675414395,4.015170779
5.144258458,-3.284278706,-1.277678016,1.609903361,3.874369182
5.154310458,-3.189418741,-1.228063806,1.459721135,3.716358219
5.164362458,-3.088721502,-1.170310273,1.316122874,3.555559881
5.174413458,-2.980433407,-1.192896312,1.175647099,3.418790869
5.184465458,-3.048794959,-1.265636845,1.081573513,3.473728341
5.194517458,-3.072886072,-1.231934078,0.989252994,3.455273053
5.204569458,-2.874452623,-1.228913991,0.750758005,3.215018672
5.214620458,-2.599048766,-1.268436491,0.649637353,2.96412117
5.224672458,-2.351278265,-1.387118597,0.647722975,2.805735649
5.234724458,-2.243449177,-1.538991545,0.694168578,2.807744504
5.244776458,-2.115626119,-1.70219055,0.81222167,2.834260147
5.254827458,-2.029598374,-1.888134931,0.941946681,2.927727212
5.264879458,-2.03318681,-2.035330399,1.007036789,3.048038965
5.274931458,-1.990943601,-2.138782262,1.087685022,3.117900687
5.284982458,-1.924880004,-2.249152258,1.140688936,3.172541593
5.295034458,-1.891636829,-2.374189703,1.138144155,3.241980684
5.305086458,-1.917530639,-2.553327925,1.086873575,3.373084851
5.315138458,-1.988999986,-2.672422259,1.068099189,3.498399284
5.325189458,-2.103331763,-2.710152003,1.073738244,3.594696399
5.335241458,-2.232000328,-2.885050117,0.986726997,3.778752414
5.345293458,-2.247091407,-3.222404931,0.751463106,3.999751259
5.355345458,-2.164213557,-3.667659001,0.395879925,4.276945614
5.365396458,-2.263834324,-4.266764717,0.046749622,4.830363602
5.375448458,-2.742337124,-4.841325576,-0.259414061,5.570111479
5.385500458,-2.910931063,-4.925178741,-0.360805914,5.732459
5.395551458,-2.670128104,-4.545279878,-0.435506469,5.289500841
5.405603458,-2.394533043,-3.807784016,-0.477532747,4.523388678
5.415655458,-2.145601285,-2.774637728,-0.32888483,3.522837582
5.425707458,-1.897039656,-1.808580054,-0.212902951,2.629648063
5.435758458,-1.559226712,-1.031635367,-0.149843105,1.875609881
5.445810458,-1.32793425,-0.487257836,-0.196123799,1.428038555
5.455862458,-1.037720565,-0.179294343,-0.294926559,1.09361424
5.465914458,-0.827976846,-0.064873103,-0.45755398,0.948214017
5.475965458,-0.653156793,-0.098387589,-0.876643807,1.097633034
5.486017458,-0.382728331,-0.216202553,-1.469599421,1.533931869
5.496069458,-0.209177708,-0.42449967,-1.961920361,2.018188987
5.506120458,-0.081123101,-0.697705559,-2.28747871,2.392892153
5.516172458,0.051181263,-1.051156297,-2.475097734,2.689546035
5.526224458,0.110741587,-1.452122093,-2.594439991,2.975237997
5.536276458,0.172130919,-1.795002235,-2.675630919,3.226555887
5.546327458,0.363369954,-1.950784923,-2.593503267,3.26555642
5.556379458,0.601849229,-1.883085861,-2.32826304,3.054348316
5.566431458,0.935563275,-1.638754107,-1.988681313,2.741468043
5.576483458,1.270605808,-1.328886176,-1.667816523,2.482335502
5.586534458,1.6392213,-0.853012285,-1.288843274,2.252952155
5.596586458,2.077795218,-0.247241328,-1.068576322,2.34951412
5.606638458,2.462478858,0.37596895,-0.997275374,2.683228084
5.616689458,2.757704777,0.971144167,-0.937679383,3.070390733
5.626741458,3.013242134,1.491186172,-0.811361983,3.458550654
5.636793458,3.14388355,1.939650655,-0.711793256,3.762033769
5.646845458,3.179573784,2.313312879,-0.633290877,3.98273314
5.656896458,3.08859988,2.507925172,-0.567258308,4.018820707
5.666948458,2.860795866,2.538293272,-0.551031078,3.864029111
5.677000458,2.561849365,2.543478583,-0.624855684,3.663713975
5.687052458,2.249726747,2.471809845,-0.707653427,3.416414454
5.697103458,1.953263558,2.349414173,-0.74105857,3.143907328
5.707155458,1.762494639,2.140512453,-0.722609435,2.865370013
5.717207458,1.41156639,1.911267686,-0.600531267,2.450734919
5.727259458,1.039936659,1.66966132,-0.465851179,2.021448614
5.737310458,0.64252597,1.383707331,-0.385498742,1.57356121
5.747362458,0.265341969,1.165175248,-0.320642632,1.237275804
5.757414458,-0.063091457,1.079494243,-0.217380803,1.102969975
5.767465458,-0.26335333,1.076676469,-0.180653199,1.123041751
5.777517458,-0.338016427,1.042900613,-0.254964294,1.125568116
5.787569458,-0.27467354,1.019626356,-0.301834441,1.098265673
5.797621458,-0.179865616,1.070863168,-0.234225426,1.110838023
5.807672458,-0.034906708,1.066896417,-0.168322609,1.080656718
5.817724458,0.132496153,0.999837039,-0.113099166,1.014899382
5.827776458,0.292007026,0.929907264,-0.014814506,0.974789768
5.837827458,0.31303069,0.930338788,0.06596127,0.983803518
5.847879458,0.28147736,0.874732937,0.112132055,0.925721779
5.857931458,0.318089116,0.73614457,0.1239996,0.811458819
5.867983458,0.317165841,0.493411446,0.145526709,0.604340176
5.878034458,0.152027022,0.178059996,0.143197142,0.274450358
5.888086458,0.079531488,-0.258505404,0.062500925,0.277590827
5.898138458,0.052485777,-0.702718962,0.00037773,0.704676407
5.908189917,0.057437199,-1.186777201,-0.036504131,1.188726928
5.918240917,0.197031287,-1.55486235,0.052823783,1.568186407
5.928292917,0.307147806,-1.721105708,0.220659885,1.762167818
5.938344917,0.366172525,-1.77724541,0.334518038,1.845151995
5.948395917,0.507642399,-1.830391338,0.44791543,1.951579229
5.958447917,0.579025208,-1.724142752,0.69782667,1.948050431
5.968499917,0.733163075,-1.706358445,0.925906599,2.075208488
5.978551917,0.940660293,-1.897670571,1.041642877,2.360299825
5.988602917,0.978633281,-2.239574811,1.067943653,2.667193671
5.998654917,0.752229091,-2.521370845,0.89875571,2.780453447
6.008706917,0.418718528,-2.647090659,0.60522088,2.747490942
6.018758917,0.196049539,-2.529572734,0.286009683,2.553228384
6.028809917,0.273987077,-1.957810938,-0.109669207,1.979929272
6.038861917,0.462042303,-0.95298447,-0.387086773,1.127607493
6.048913917,0.747574123,0.130271872,-0.672306862,1.013821654
6.058964917,0.900488752,1.325088995,-0.639728589,1.725106809
6.069016917,0.790653484,2.453534957,-0.349394524,2.601354119
6.079068917,0.72369234,3.1179798,-0.002942319,3.200865085
6.089120917,0.803232014,3.239622935,0.296348657,3.350844812
6.099171917,0.868127337,2.957931567,0.690594833,3.159102001
6.109223917,0.759400116,2.465893047,0.9424578,2.746915318
6.119275917,0.611431062,1.844687195,0.844613929,2.118983596
6.129327917,0.681004742,1.027443498,0.396054136,1.294707102
6.139378917,0.824363267,0.204142671,-0.044013271,0.850403548
6.149430917,0.877956507,-0.455819696,-0.360958051,1.053028935
6.159482917,0.839230397,-0.923218634,-0.68929317,1.425400077
6.169533917,0.676172018,-1.174054829,-1.083456316,1.734788439
6.179585917,0.401199101,-1.261392351,-1.470403998,1.978423437
6.189637917,0.021852799,-1.140880651,-1.65980233,2.014207035
6.199689917,-0.426470767,-0.818434775,-1.568943615,1.820246374
6.209740917,-0.754610662,-0.517579157,-1.217474572,1.523013384
6.219792917,-1.039722651,-0.214114512,-0.602996453,1.220849269
6.229844917,-1.377877657,0.122394503,0.200722049,1.397789896
6.239895917,-1.716682874,0.358416193,0.933979264,1.986901991
6.249947917,-2.085709425,0.498406137,1.537682061,2.638760808
6.259999917,-2.511372691,0.537581313,1.942869548,3.220361554
6.270051917,-2.869530437,0.518789531,2.102020233,3.594695615
6.280102917,-3.104568041,0.458703543,2.14438448,3.800938892
6.290154917,-3.293903223,0.32988412,2.090164418,3.915023534
6.300206917,-3.471940999,0.134313467,1.916547722,3.968068747
6.310258917,-3.615185503,-0.095499065,1.644875557,3.972946249
6.320309917,-3.708272007,-0.252075221,1.28912511,3.934039495
6.330361917,-3.597371961,-0.232498158,0.971173403,3.73340571
6.340413917,-3.35014759,-0.041085461,0.687306286,3.420170584
6.350465917,-2.933453953,0.175219418,0.377327916,2.962807839
6.360516917,-2.556130203,0.382504967,0.102237451,2.586612488
6.370568917,-2.220792385,0.502907324,-0.037809229,2.277337071
6.380620917,-1.916962289,0.570814548,-0.086327122,2.002005504
6.390671917,-1.75310635,0.515656593,-0.097598215,1.829975138
6.400723917,-1.555458766,0.465619045,-0.170385525,1.632569844
6.410775917,-1.295928345,0.419758163,-0.342898268,1.404708658
6.420827917,-1.128778085,0.254768448,-0.524196999,1.270365861
6.430878917,-1.015204107,0.14656046,-0.646448282,1.212441639
6.440930917,-0.865216593,0.186537289,-0.777359254,1.177999713
6.450982917,-0.653125802,0.352262583,-0.905930171,1.171055813
6.461033917,-0.323366228,0.636748336,-1.074245782,1.289968279
6.471085917,0.182227306,0.874660431,-1.152695535,1.458404834
6.481137917,0.60583703,0.934384477,-1.24741926,1.672174532
6.491189917,0.958869692,0.755927455,-1.390062085,1.850170264
6.501240917,1.226942895,0.365189023,-1.477585548,1.954996405
6.511292917,1.37824954,-0.183076322,-1.543979512,2.077729884
6.521344917,1.558063701,-0.855231888,-1.640991837,2.419057313
6.531396917,1.558200526,-1.398121887,-1.702384093,2.698304151
6.541447917,1.480425541,-1.60294225,-1.565100825,2.685260552
6.551499917,1.571256189,-1.580282536,-1.404887116,2.634358881
6.561551917,1.949381592,-1.610516734,-1.206022142,2.801489273
6.571603917,2.516812356,-1.740908473,-0.974315697,3.211603622
6.581654917,2.875019218,-2.001720019,-0.701281132,3.572731975
6.591706917,2.914078619,-2.179197632,-0.241256154,3.646774061
6.601758917,2.625319136,-2.108351598,0.310393523,3.38138894
6.611809917,2.188612234,-1.845606378,0.682481164,2.943138962
6.621861917,1.847371067,-1.260460889,0.875239305,2.401579763
6.631913917,1.788562111,-0.427931986,0.965409218,2.077040002
6.641965917,1.909075565,0.512820693,1.096249951,2.260380174
6.652016917,2.134482805,1.406633095,1.321326896,2.877592444
6.662068917,2.503435096,2.052155178,1.48623475,3.561940746
6.672120917,2.849120731,2.369459013,1.463165145,3.98405286
6.682171917,3.075574622,2.311801373,1.242721606,4.043258814
6.692223917,3.026068001,1.834841654,0.957549391,3.666146789
6.702275917,2.689619213,1.113364824,0.555736917,2.963524298
6.712327917,2.527495803,0.26791182,0.209097601,2.550241868
6.722378917,2.423765028,-0.460215048,0.157897042,2.472117772
6.732430917,2.110344914,-0.901055932,0.285740565,2.312380833
6.742482917,1.850224509,-0.972266248,0.231410576,2.102898772
6.752534917,1.893992672,-0.815481931,0.051234473,2.062727319
6.762585917,2.121090927,-0.478028591,-0.134169114,2.1784259
6.772637917,2.319510342,0.109024259,-0.330833196,2.345520224
6.782689917,2.671037931,0.736128198,-0.376916199,2.796139155
6.792741917,2.942372711,1.376435734,-0.21005998,3.255189348
6.802792917,3.072413617,1.929052577,0.094825466,3.62904411
6.812844917,3.017431079,2.35174078,0.451047272,3.852144682
6.822896917,2.781318757,2.66110702,0.821025091,3.935899745
6.832947917,2.47292374,2.793161123,1.086734338,3.885626385
6.842999917,1.98750076,2.786735618,1.21432877,3.631893313
6.853051917,1.448079913,2.650701315,1.273875571,3.278095768
6.863103917,1.076932577,2.392347938,1.215687517,2.891540865
6.873154917,0.740837545,2.197677172,1.199715262,2.611118904
6.883206917,0.433244181,1.999978718,1.227703618,2.386393003
6.893258917,0.182604452,1.723710642,1.213241115,2.1157686
6.903310917,-0.062489778,1.375312484,1.128590901,1.780198534
6.913361667,-0.284207425,1.042078494,1.124326088,1.559105705
6.923413667,-0.500298881,0.69484861,1.161467528,1.442955432
6.933465667,-0.679265195,0.299754002,1.200643873,1.411665462
6.943516667,-0.914339637,-0.117540144,1.263946999,1.564415122
6.953568667,-1.23800992,-0.448936939,1.235600867,1.805802437
6.963620667,-1.491058118,-0.630190684,1.117738541,1.967163962
6.973672667,-1.629584504,-0.684825312,0.936961418,2.000606923
6.983723667,-1.646925007,-0.740931686,0.685484367,1.931639344
6.993775667,-1.585243313,-0.79245735,0.483355404,1.83701319
7.003827667,-1.505311875,-0.854248386,0.513355056,1.805335858
7.013879667,-1.491054025,-0.897371601,0.70173261,1.876418544
7.023930667,-1.440923506,-0.998312085,0.918467698,1.979007449
7.033982667,-1.305803708,-1.147548816,1.142267611,2.080088196
7.044034667,-1.086046048,-1.410022725,1.263166981,2.182487325
7.054086667,-0.883755775,-1.753270656,1.408072679,2.416123121
7.064137667,-0.640049089,-2.208873421,1.526064959,2.760010668
7.074189667,-0.446940699,-2.694042631,1.639062109,3.184987643
7.084241667,-0.437660583,-3.066289244,1.788785913,3.576790678
7.094292667,-0.551662577,-3.330277582,1.863134576,3.855690706
7.104344667,-0.655903814,-3.458136308,1.916060064,4.007518272
7.114396667,-0.73957747,-3.437007394,2.100797141,4.09552723
7.124448667,-0.896273494,-3.464234954,2.311312985,4.259858883
7.134499667,-0.917814637,-3.588981206,2.440171584,4.435944901
7.144551667,-0.786845777,-3.938069921,2.381625899,4.669010913
7.154603667,-0.844221581,-4.174213818,2.186522878,4.787238596
7.164655667,-1.070919886,-4.27382523,1.87614697,4.788776352
7.174706667,-1.325911698,-4.179143606,1.495108484,4.632346326
7.184758667,-1.54162133,-3.834362535,1.186444495,4.299602646
7.194810667,-1.615469325,-3.214151587,0.947479389,3.719976983
7.204861667,-1.614533186,-2.250750302,0.707630184,2.858904477
7.214913667,-1.783741082,-1.113084742,0.576618348,2.180178573
7.224965667,-2.187619377,0.020107405,0.462400226,2.236044904
7.235017667,-2.451312431,0.975053616,0.355855697,2.662009666
7.245068667,-2.512055061,1.560788503,0.259472607,2.968805722
7.255120667,-2.538540609,1.767507165,0.248455283,3.103224134
7.265172667,-2.655298396,1.608050963,0.323124154,3.121032952
7.275224667,-2.752760371,1.071758376,0.434044592,2.985757925
7.285275667,-2.737005633,0.398376065,0.540901435,2.818240176
7.295327667,-2.620895718,-0.39222304,0.510934381,2.698886292
7.305379667,-2.214387345,-1.122840822,0.393243891,2.513746921
7.315431667,-1.687875397,-1.528377972,0.215999655,2.287251283
7.325482667,-1.234225017,-1.631319373,-0.136423654,2.050152605
7.335534667,-0.741490679,-1.729742045,-0.556548511,1.962539736
7.345586667,-0.375272546,-1.651670022,-0.803687001,1.87476829
7.355637667,-0.228234369,-1.368465979,-1.009165102,1.715576949
7.365689667,-0.177774067,-0.999901943,-1.063039008,1.470190276
7.375741667,-0.286210096,-0.579239216,-0.929148295,1.13170263
7.385793667,-0.377324334,-0.153633252,-0.690232233,0.801496952
7.395844667,-0.577213156,0.180436304,-0.321859949,0.685073802
7.405896667,-0.784545482,0.437524928,0.105550538,0.904478077
7.415948667,-0.766897416,0.703418289,0.430408866,1.126135306
7.426000667,-0.770715648,0.934927683,0.706079357,1.40236958
7.436051667,-0.700285935,1.160820242,0.894957432,1.624454625
7.446103667,-0.531428872,1.316531594,0.889000143,1.675109948
7.456155667,-0.261302127,1.43345018,0.695497139,1.614550863
7.466206667,-0.128966773,1.527658179,0.35360335,1.573342706
7.476258667,-0.093805127,1.482634034,-0.071847078,1.487334893
7.486310667,-0.061644271,1.435565118,-0.466704909,1.510781485
7.496362667,-0.063071576,1.342702562,-0.795797864,1.562089125
7.506413667,-0.171564909,1.265857285,-1.046696041,1.651484721
7.516465667,-0.204471284,1.21536073,-1.24943538,1.754992586
7.526517667,-0.092193049,1.245201995,-1.231810702,1.753962706
7.536569667,0.063607766,1.432170809,-1.058367083,1.781937164
7.546620667,0.298115028,1.570274441,-0.906954603,1.837716257
7.556672667,0.543099915,1.752750839,-0.738116251,1.97785455
7.566724667,0.726760958,1.824147096,-0.523588926,2.03220065
7.576776667,0.79677318,1.810820707,-0.33730018,2.006910697
7.586827667,0.831537216,1.740281067,-0.245967841,1.944359152
7.596879667,0.83589573,1.624031988,-0.299580925,1.850932278
7.606931667,0.787497157,1.610736004,-0.341442311,1.825158924
7.616982667,0.772669203,1.653884363,-0.296113526,1.849333502
7.627034667,0.773859111,1.729625101,-0.219574642,1.907530848
7.637086667,0.899070802,1.8667388,-0.120120557,2.075444772
7.647138667,1.186180785,1.890938087,-0.066865232,2.233191139
7.657189667,1.503102797,1.704213102,-0.020120233,2.272457951
7.667241667,1.829034784,1.307382456,-0.075694509,2.249521457
7.677293667,2.094516501,0.796722309,-0.165082046,2.247001979
7.687345667,2.24654937,0.277732219,-0.26137752,2.278692052
7.697396667,2.343838268,-0.137507801,-0.302076516,2.367221249
7.707448667,2.478982624,-0.379656204,-0.323465631,2.528660456
7.717500667,2.622258704,-0.42646375,-0.21287958,2.665226023
7.727552667,2.921518616,-0.483537253,-0.109824743,2.963298968
7.737603667,3.455483426,-0.77391466,-0.063679723,3.541661293
7.747655667,3.745725762,-1.255340483,0.184418806,3.954788428
7.757707667,3.711524813,-1.685153518,0.719046142,4.139104513
7.767758667,3.493469278,-1.781693972,1.264201938,4.120311583
7.777810667,2.986325646,-1.48130964,1.799939039,3.788429709
7.787862667,2.548266867,-0.862001209,2.213912551,3.483980324
7.797914667,2.148039574,0.130670652,2.492456363,3.292945119
7.807965667,1.879485145,1.153109518,2.563452086,3.381332958
7.818017667,1.662431238,1.889372787,2.149842271,3.309868417
7.828069667,1.709337602,2.20206083,1.420464098,3.128677866
7.838121667,1.719146306,2.147253124,0.617805111,2.819191933
7.848172667,1.523318961,1.661845931,-0.13761422,2.258577036
7.858224667,1.442549617,0.776193904,-0.604502696,1.746095611
7.868276667,1.477805988,-0.119520012,-0.71573311,1.646350344
7.878327667,1.323882714,-0.929952287,-0.643467371,1.74112807
7.888379667,1.067545457,-1.651735511,-0.511468817,2.032113149
7.898431667,0.716280994,-2.100799334,-0.360237601,2.24859677
7.908484417,0.470038955,-2.33866699,-0.299562213,2.404170841
7.918535417,0.351740427,-2.235572977,-0.420414805,2.301794185
7.928587417,0.397852739,-1.762001134,-0.497509174,1.873619539
7.938639417,0.700397617,-1.142759362,-0.270546009,1.367351792
7.948691417,1.043453175,-0.403818653,0.086840508,1.122232287
7.958742417,1.168046815,0.313890815,0.433304408,1.284762047
7.968794417,1.236898949,0.840844814,0.6849253,1.645011148
7.978846417,1.29163532,1.207976866,0.841827146,1.958622693
7.988898417,1.269791876,1.485814335,0.926505353,2.162967364
7.998949417,1.150612757,1.664624528,0.919461797,2.222677335
8.009001417,0.948457555,1.700114204,0.863261869,2.129596463
8.019053417,0.64948708,1.582868759,0.700411066,1.848751643
8.029105417,0.210679858,1.344004152,0.473499337,1.440463393
8.039156417,-0.118019031,1.125481424,0.283015763,1.166505401
8.049208417,-0.245820454,0.953586733,0.045345139,0.985805018
8.059260417,-0.444165026,0.751384753,-0.070299923,0.875673282
8.069311417,-0.635547903,0.552710983,-0.159957601,0.857319661
8.079363417,-0.707178048,0.341421261,-0.296284246,0.839317356
8.089415417,-0.907337011,0.032705816,-0.398955524,0.991713483
8.099467417,-1.185663307,-0.302936642,-0.492376488,1.319091616
8.109518417,-1.452033216,-0.597393651,-0.4991639,1.64755705
8.119570417,-1.619251304,-0.896249521,-0.455201061,1.905897688
8.129622417,-1.813394067,-1.224727385,-0.398024647,2.224135524
8.139674417,-2.010361619,-1.644222423,-0.389845562,2.626214153
8.149725417,-2.295719776,-2.032578115,-0.399865351,3.092182948
8.159777417,-2.459601443,-2.274650212,-0.348029784,3.36820391
8.169829417,-2.59134272,-2.38477901,-0.18026383,3.52629027
8.179881417,-2.765203246,-2.408691199,-0.03021958,3.667295394
8.189932417,-2.821929424,-2.440935669,-0.015554772,3.73117871
8.199984417,-2.67540697,-2.498003032,0.040546923,3.660528057
8.210036417,-2.539450436,-2.521020012,0.134391235,3.580839485
8.220087417,-2.416005773,-2.703405193,0.157440959,3.629086826
8.230139417,-2.296830162,-3.068343371,0.196719046,3.837819461
8.240191417,-2.239857817,-3.5424362,0.284303319,4.200791074
8.250243417,-2.248669571,-4.063763423,0.411082649,4.662582647
8.260294417,-2.43861871,-4.419208353,0.549690896,5.077245687
8.270346417,-2.674374937,-4.431956745,0.532785426,5.203689288
8.280398417,-2.73052341,-4.420043043,0.324920418,5.205584681
8.290450417,-2.706943928,-4.27519611,0.054991894,5.060422049
8.300501417,-2.485136234,-3.926851453,-0.118941722,4.648678476
8.310553417,-2.103290248,-3.787137498,-0.311283542,4.343171392
8.320605417,-1.815849313,-3.733490756,-0.497534902,4.181363764
8.330657417,-1.565786119,-3.707316572,-0.709055589,4.086397211
8.340708417,-1.404671354,-3.548662608,-0.958633465,3.935109406
8.350760417,-1.350771135,-3.16988524,-1.24048797,3.66218043
8.360812417,-1.413210043,-2.54914395,-1.635942181,3.342394998
8.370863417,-1.575793628,-1.814328159,-2.035227488,3.149136891
8.380915417,-1.674899256,-0.936768386,-2.165316342,2.893340178
8.390967417,-1.7959144,-0.09754062,-2.041507398,2.720767385
8.401019417,-1.744108654,0.458093094,-1.759386259,2.519365851
8.411070417,-1.405711573,0.726021286,-1.399065628,2.111993505
8.421122417,-0.924556476,0.738844814,-1.034719774,1.572050046
8.431174417,-0.467682527,0.491148281,-0.836768135,1.077095396
8.441226417,-0.070968241,0.01020573,-0.795822423,0.799045666
8.451277417,0.151453995,-0.523533377,-0.84479987,1.005341897
8.461329417,0.199814562,-0.920617792,-0.9767458,1.357017073
8.471381417,0.227290043,-1.170700282,-1.189870963,1.684634329
8.481433417,0.379876059,-1.229537305,-1.379389747,1.886473927
8.491484417,0.484143024,-1.099489381,-1.552818164,1.963292036
8.501536417,0.60842033,-0.853333881,-1.64831489,1.953278267
8.511588417,0.662645069,-0.561893451,-1.591560645,1.813253436
8.521639417,0.624273301,-0.218573599,-1.368687004,1.520130155
8.531691417,0.484583319,0.046961328,-1.03602955,1.144719873
8.541743417,0.243815444,0.207348114,-0.60145509,0.681313024
8.551795417,-0.046404673,0.345730074,-0.112721381,0.366590763
8.561846417,-0.356828674,0.431575386,0.404178257,0.690611381
8.571898417,-0.715807954,0.504032328,0.810503612,1.193040535
8.581950417,-1.021471152,0.635485337,1.155409813,1.667997831
8.592002417,-1.254890832,0.783927432,1.418336881,2.04962746
8.602053417,-1.438553045,0.878383353,1.520776591,2.270188014
8.612105417,-1.473619382,0.86315428,1.529043385,2.292283374
8.622157417,-1.492871339,0.860932338,1.506202991,2.288780631
8.632209417,-1.455550316,0.811481851,1.362756758,2.152727455
8.642260417,-1.404871328,0.778902335,1.108483422,1.951688447
8.652312417,-1.377441455,0.819356881,0.971665739,1.874253176
8.662364417,-1.347863899,0.825763675,0.84132085,1.790654492
8.672416417,-1.250154587,0.854723765,0.733028004,1.682489007
8.682467417,-1.148768545,0.895331508,0.679511948,1.607178947
8.692519417,-0.994913684,0.973495333,0.649898139,1.536201156
8.702571417,-0.872613321,1.039355446,0.570269624,1.472046601
8.712622417,-0.684476818,1.123751818,0.48147494,1.401122686
8.722674417,-0.567800308,1.187533246,0.469344306,1.397467881
8.732726417,-0.513078555,1.102777855,0.49954978,1.314883487
8.742778417,-0.337266229,0.983467174,0.506938394,1.156694743
8.752829417,-0.186622658,0.949469123,0.583501873,1.129953127
8.762881417,0.00058706,0.974647234,0.623148297,1.156828153
8.772933417,0.292346749,1.041653402,0.544202663,1.211059441
8.782985417,0.572744129,1.111489622,0.410932997,1.31617284
8.793036417,0.923370076,1.039828486,0.217222965,1.407494723
8.803088417,1.203257579,0.853199396,-0.064001247,1.476439694
8.813140417,1.620804325,0.686679465,-0.341651605,1.793114934
8.823192417,2.099638662,0.48590479,-0.617830839,2.241941329
8.833243417,2.42220733,0.200492254,-0.78610552,2.554456377
8.843295417,2.671677032,-0.059372628,-0.823135936,2.796236049
8.853347417,2.896424705,-0.161686038,-0.70966253,2.986476077
8.863399417,3.094486272,-0.087505921,-0.607828629,3.154830933
8.873450417,3.587189035,-0.081821258,-0.651152879,3.646727295
8.883502417,4.338305401,-0.454707556,-0.761774086,4.428086773
8.893554417,4.860529001,-1.015311111,-0.824880745,5.033490545
8.903605417,5.175990964,-1.441132252,-0.712410722,5.419896093
8.913656667,5.175183463,-1.462460555,-0.415629481,5.393891232
8.923708667,4.802663201,-1.010853193,-0.125996936,4.909508451
8.933760667,4.329461487,-0.292591748,-0.029869916,4.33943993
8.943811667,3.743288643,0.678897405,0.045604774,3.804627622
8.953863667,3.192388542,1.768616674,0.115434562,3.651393526
8.963915667,2.97339102,2.742787945,0.105854466,4.046621435
8.973967667,3.031059769,3.379003599,-0.007799035,4.539278519
8.984018667,3.102077127,3.569987696,-0.178675689,4.732823645
8.994070667,2.988517182,3.42688177,-0.384218202,4.563154309
9.004122667,2.878011823,2.734541616,-0.812630829,4.052288091
9.014174667,2.835259906,1.894803096,-1.159127473,3.60174319
9.024225667,2.595410044,1.112437456,-1.297770803,3.107712896
9.034277667,2.264543592,0.427760078,-1.249016719,2.621293407
9.044329667,2.021250304,-0.043979248,-1.199805382,2.350940221
9.054381667,1.786323212,-0.264693512,-1.249945257,2.196218664
9.064432667,1.633707376,-0.156794257,-1.374835936,2.140971293
9.074484667,1.756910548,0.291794187,-1.437298232,2.288603227
9.084536667,2.26888398,0.958281462,-1.295532489,2.782901778
9.094587667,2.677207328,1.728718783,-1.007848309,3.342404213
9.104639667,2.935376517,2.260957494,-0.68349624,3.767695741
9.114691667,3.203582452,2.559067259,-0.324768391,4.11305729
9.124743667,3.262244058,2.719030707,0.091745152,4.247797248
9.134794667,3.138029317,2.702250953,0.543396953,4.176681512
9.144846667,2.961678463,2.577739758,1.09156867,4.075267321
9.154898667,2.643071868,2.354886582,1.508626077,3.848021875
9.164950667,2.183526326,1.95803664,1.758693949,3.419751322
9.175001667,1.664443849,1.462973941,1.881590581,2.907068832
9.185053667,1.255556245,1.027355205,1.924341914,2.516937028
9.195105667,0.919790411,0.638822928,1.913687264,2.217274921
9.205157667,0.608280582,0.290002016,1.889097383,2.005690743
9.215208667,0.3426521,-0.051712775,1.871354592,1.903169115
9.225260667,0.089318558,-0.388728159,1.858550359,1.900867387
9.235312667,-0.150202106,-0.676182543,1.897130434,2.019625556
9.245364667,-0.446490464,-0.977934539,1.978391383,2.251608794
9.255415667,-0.763209577,-1.264646326,2.040471125,2.51899615
9.265467667,-1.084853216,-1.484420359,2.127298769,2.81172729
9.275519667,-1.409605234,-1.689841815,2.216873435,3.123632518
9.285571667,-1.778850471,-1.938739659,2.230308144,3.449245552
9.295622667,-2.098903082,-2.121881762,2.255591651,3.741051999
9.305674667,-2.334397354,-2.190015273,2.268599367,3.923279367
9.315726667,-2.473937062,-2.259155967,2.270429545,4.047097799
9.325778667,-2.528637764,-2.388077424,2.222310615,4.127418951
9.335829667,-2.504447833,-2.523804748,2.139638733,4.149687129
9.345881667,-2.42650211,-2.54406038,2.155937408,4.124102547
9.355933667,-2.33290339,-2.633932962,2.170183564,4.133973606
9.365984667,-2.257240419,-2.926563594,2.109995835,4.255818511
9.376036667,-2.168425307,-3.269988403,2.002700597,4.405190365
9.386088667,-2.194046636,-3.588135114,1.920554234,4.623535747
9.396140667,-2.15537666,-3.986509717,1.761767392,4.862276485
9.406191667,-2.064674066,-4.417046345,1.614981229,5.136277036
9.416243667,-2.134248916,-4.705972474,1.589278038,5.406200148
9.426295667,-2.199582195,-4.85003208,1.555354832,5.547981765
9.436347667,-2.246892017,-4.79113717,1.387346785,5.470671825
9.446398667,-2.219997164,-4.703240654,1.184088067,5.333940814
9.456450667,-2.09431945,-4.795638064,1.066194239,5.340513885
9.466502667,-2.057336395,-5.032636532,0.951574706,5.519561389
9.476554667,-2.245371741,-5.238637447,0.99552808,5.785852808
9.486605667,-2.568216398,-5.381863241,1.16526471,6.07602084
9.496657667,-2.86182673,-5.467867012,1.359936207,6.319576598
9.506709667,-3.342794132,-5.196459142,1.574416609,6.376225206
9.516761667,-4.029621531,-4.473543313,1.490485822,6.202579095
9.526812667,-4.418613984,-3.404226733,1.223956868,5.710602386
9.536864667,-4.314532376,-2.169921902,0.89738622,4.912133214
9.546916667,-4.075197068,-0.953983759,0.730497475,4.248640102
9.556967667,-3.786736379,0.028165453,0.803522036,3.871151425
9.567019667,-3.263256796,0.576154517,0.836393913,3.417653248
9.577071667,-2.811893263,0.779694632,0.861277178,3.042444053
9.587123667,-2.4600815,0.605643488,0.984407845,2.718062513
9.597174667,-2.258720934,0.211614243,1.027660869,2.490519566
9.607226667,-2.102640038,-0.341352556,0.692885626,2.240023925
9.617278667,-1.865664082,-1.11919099,-0.010535513,2.175638282
9.627330667,-1.62644338,-1.769581172,-0.696422168,2.502346784
9.637381667,-1.489102224,-2.14129101,-1.309986806,2.918667171
9.647433667,-1.212050622,-2.32191501,-1.918637516,3.246771618
9.657485667,-0.862557279,-2.225108215,-2.442530497,3.414830429
9.667537667,-0.531366307,-1.86706332,-2.809556715,3.414950151
9.677588667,-0.283689362,-1.357084374,-2.930956607,3.242323902
9.687640667,-0.084601609,-0.915060598,-2.861330302,3.005279426
9.697692667,0.067051776,-0.544941203,-2.561708447,2.619886834
9.707744667,0.35539903,-0.1590238,-2.018617887,2.055824704
9.717795667,0.571331441,0.132240629,-1.411638311,1.528603913
9.727847667,0.661774419,0.372574056,-0.764144547,1.077345672
9.737899667,0.865112513,0.477408201,-0.270634795,1.024490821
9.747951667,0.97663938,0.560062103,0.04246365,1.126630907
9.758002667,1.084133424,0.637171674,0.174236501,1.269524077
9.768054667,1.204646292,0.689211894,0.157263131,1.396752453
9.778106667,1.174668202,0.790469881,0.088319854,1.418622013
9.788158667,1.287269204,0.915795009,-0.011362273,1.579832776
9.798209667,1.381306465,1.035140188,-0.222159038,1.740367029
9.808261667,1.451188293,1.204450995,-0.478368935,1.945632674
9.818313667,1.491148165,1.471258861,-0.595633676,2.17782115
9.828365667,1.580353287,1.739334987,-0.694864397,2.450640577
9.838416667,1.706848442,2.028728308,-0.787118257,2.765614815
9.848468667,1.814662912,2.235622678,-0.795573331,2.987297637
9.858520667,1.927159249,2.35904863,-0.784931399,3.145658994
9.868571667,2.029431728,2.444769981,-0.818134228,3.280981105
9.878623667,2.047315437,2.440146587,-0.83499292,3.292875498
9.888675667,2.026281833,2.381811841,-0.867001748,3.245079004
9.898727667,1.959785542,2.371418999,-0.91536173,3.209715648
9.908779083,1.87954771,2.523346034,-0.964077222,3.290808365
9.918831083,1.889938213,2.65373602,-1.076071283,3.431050964
9.928883083,1.887836139,2.734001334,-1.21215821,3.536667373
9.938935083,1.939245443,2.889403369,-1.268277447,3.703761925
9.948986083,2.123843796,2.884937266,-1.243173012,3.791972393
9.959038083,2.332894619,2.611499242,-1.239042538,3.714505621
9.969090083,2.429093011,2.146072571,-1.268464558,3.480678478
9.979142083,2.541463047,1.554292247,-1.330530413,3.262693671
9.989193083,2.780491961,0.848204119,-1.345017475,3.203070055
9.999245083,2.932024308,0.298270563,-1.243439645,3.198730064
10.00929708,3.003291927,0.03016637,-1.134680264,3.21063416
10.01934908,3.257709543,0.016733562,-1.051386677,3.423209812
10.02940008,3.784747156,0.010139657,-0.943113785,3.900497078
10.03945208,4.459302419,-0.231399466,-0.755249763,4.528722334
10.04950408,4.979411082,-0.731760328,-0.508083243,5.05847373
10.05955608,5.175903255,-1.323157074,-0.214379939,5.346651093
10.06960708,4.980720273,-1.662830603,0.200890486,5.254801332
10.07965908,4.515893526,-1.630518889,0.62870783,4.842226732
10.08971108,4.104496297,-1.127911527,1.041136508,4.382127279
10.09976308,3.680214728,-0.147041686,1.436540433,3.95338464
10.10981408,3.430809345,1.004759225,1.743670113,3.977484045
10.11986608,3.160560978,2.110820877,1.898772186,4.248534604
10.12991808,3.078995243,2.842482387,1.852450544,4.581647176
10.13997008,3.285901893,3.051181208,1.651394033,4.778489329
10.15002108,3.428179852,2.901689538,1.290872258,4.673175629
10.16007308,3.243589101,2.197433928,0.684181534,3.977146024
10.17012508,3.030263379,1.19256536,0.071629561,3.257274793
10.18017708,3.00748555,0.276775029,-0.309860366,3.036047957
10.19022808,2.845877865,-0.64208392,-0.527428207,2.964704555
10.20028008,2.595025882,-1.477543448,-0.640781088,3.054160174
10.21033208,2.108552157,-1.87470797,-0.662048653,2.8980736
10.22038308,1.674572981,-1.922372133,-0.730434179,2.652026278
10.23043508,1.366757423,-1.616563339,-0.812649613,2.267532199
10.24048708,1.29528749,-1.081360089,-0.682020403,1.819961856
10.25053908,1.594705278,-0.392293206,-0.176471307,1.651702456
10.26059008,1.727344687,0.225487931,0.466806614,1.803461364
10.27064208,1.752373109,0.47410394,1.001390717,2.073250932
10.28069408,1.781540775,0.61701983,1.538353322,2.433337614
10.29074608,1.658270359,0.681590048,1.883543698,2.60041582
10.30079708,1.42358885,0.559671509,2.129138449,2.621653667
10.31084908,0.964436241,0.334429745,2.204958125,2.429777943
10.32090108,0.325716809,-0.01815385,2.088253548,2.11358082
10.33095308,-0.229692664,-0.372762337,1.761216438,1.814826113
10.34100408,-0.658795847,-0.585745997,1.414779435,1.666946668
10.35105608,-1.13779566,-0.725037199,1.280880536,1.860352884
10.36110808,-1.528016614,-0.906899639,1.164580659,2.124511671
10.37116008,-1.797883158,-1.065590149,1.058438419,2.342681818
10.38121108,-2.002677208,-1.153823756,1.043139764,2.535777164
10.39126308,-2.161239663,-1.317301088,1.024284832,2.730457554
10.40131508,-2.340167971,-1.459232892,1.058260664,2.953923221
10.41136708,-2.57599261,-1.574443214,1.113460718,3.217825994
10.42141808,-2.765783874,-1.669161383,1.145600451,3.427544391
10.43147008,-2.902238592,-1.818162763,1.17660575,3.621202255
10.44152208,-3.070818497,-2.039735692,1.170458207,3.86787026
10.45157408,-3.211166291,-2.313061448,1.160081665,4.124030999
10.46162508,-3.407004746,-2.619574832,1.087811395,4.433191544
10.47167708,-3.592551516,-2.940480844,1.058993978,4.761756213
10.48172908,-3.739348204,-3.163477277,1.026776916,5.004456445
10.49178108,-3.876685266,-3.343273019,1.01864819,5.219560064
10.50183208,-4.03925248,-3.508566204,1.064066876,5.455074309
10.51188408,-4.107212913,-3.800707131,1.05955056,5.695368293
10.52193608,-4.166789024,-4.147863633,1.107210045,5.982709885
10.53198808,-4.282212476,-4.358682947,1.155108097,6.218499452
10.54203908,-4.237650846,-4.54259162,1.119885639,6.312445419
10.55209108,-3.924560514,-4.651727269,1.025616974,6.171922877
10.56214308,-3.554664482,-4.827548366,0.893524864,6.061291075
10.57219508,-3.343674722,-5.136055065,0.694222373,6.167752183
10.58224608,-3.348713268,-5.330366228,0.637669419,6.327187919
10.59229808,-3.49174318,-5.314543662,0.691072989,6.396422957
10.60235008,-3.569308249,-5.239583527,0.745591259,6.383502427
10.61240208,-3.514330389,-5.28537892,0.671804075,6.382559763
10.62245308,-3.432740681,-5.400602982,0.51715348,6.420098821
10.63250508,-3.303975052,-5.53559648,0.377897362,6.457699741
10.64255708,-3.242805575,-5.643250737,0.174608384,6.510956532
10.65260908,-3.126623154,-5.609475465,-0.016285665,6.422013124
10.66266008,-2.870865941,-5.438430959,-0.220544037,6.153620253
10.67271208,-2.581006013,-5.056043521,-0.429543405,5.692949645
10.68276408,-2.399907804,-4.405338758,-0.50770438,5.042254533
10.69281608,-2.366962836,-3.590518147,-0.524370187,4.332354755
10.70286708,-2.314626748,-2.474277955,-0.455279487,3.418600268
10.71291908,-2.028720122,-1.240505219,-0.2746636,2.393741554
10.72297108,-1.432440366,-0.186728493,-0.089074217,1.447303405
10.73302208,-0.573580865,0.618544199,0.012321326,0.843649068
10.74307408,0.265332613,1.254654019,0.141025559,1.290134223
10.75312608,0.931041623,1.538274969,0.092823525,1.800484543
10.76317808,1.379390332,1.452071223,-0.196078191,2.012380476
10.77322908,1.591520884,1.071495252,-0.651875741,2.026322477
10.78328108,1.585733895,0.440346794,-1.346566987,2.126428916
10.79333308,1.561619977,-0.141064078,-1.958080494,2.508512557
10.80338508,1.377530333,-0.512349408,-2.307410699,2.73573315
10.81343608,1.000844514,-0.785985652,-2.559470133,2.858382505
10.82348808,0.537464368,-0.752151323,-2.728555237,2.880904934
10.83354008,0.213998153,-0.582052311,-2.823837955,2.891131422
10.84359208,-0.004538609,-0.335903828,-2.788737119,2.808897774
10.85364308,-0.191647171,-0.099606149,-2.553045212,2.562165076
10.86369508,-0.234961005,0.186966475,-1.992183795,2.014685933
10.87374708,-0.089675823,0.524430925,-1.162306092,1.278289873
10.88379908,0.059832219,0.877008088,-0.381452542,0.958242726
10.89385008,0.096114777,1.108295873,0.174245784,1.126019265
10.90390208,0.126976381,1.240759866,0.608640186,1.387822367
10.91395367,0.203016497,1.448178146,0.92657552,1.731178164
10.92400567,0.403091844,1.613833859,1.103522791,1.996172665
10.93405667,0.692931308,1.807518784,1.120994198,2.236941203
10.94410867,0.838650938,2.031629696,1.142660544,2.477201594
10.95416067,0.944554539,2.08916396,1.07518616,2.532353571
10.96421267,1.02900529,2.120979829,0.949986602,2.541629766
10.97426367,1.101977372,2.124141419,0.828169366,2.532231307
10.98431567,1.242512276,2.10746399,0.754574994,2.560200119
10.99436767,1.35813161,2.072697031,0.676750892,2.568771345
11.00441967,1.485612606,2.075390258,0.597469665,2.621308746
11.01447067,1.745506139,2.101154845,0.507901942,2.778418209
11.02452267,2.081683032,2.176652924,0.415524267,3.040375407
11.03457467,2.44316492,2.211894677,0.288285346,3.308268631
11.04462667,2.844685618,2.250352399,0.073594299,3.627911011
11.05467767,3.039283878,2.374082991,-0.01339831,3.856643107
11.06472967,3.090838194,2.42943215,-0.090442466,3.932378561
11.07478167,3.004012304,2.3902751,-0.232705223,3.845992291
11.08483367,2.754159025,2.415523378,-0.380512309,3.683060513
11.09488467,2.723947631,2.540297697,-0.51440295,3.760001793
11.10493667,2.990933837,2.643075376,-0.650785747,4.04413832
11.11498867,3.362648937,2.556127864,-0.771471108,4.293758866
11.12504067,3.840008022,2.206311756,-0.893047585,4.517854265
11.13509167,4.143562129,1.692945517,-1.029152055,4.59285593
11.14514367,4.22510389,1.064541743,-1.174216797,4.512597599
11.15519567,4.165300323,0.532582528,-1.317086495,4.400918968
11.16524767,4.161711887,0.293415036,-1.446778908,4.415779367
11.17529867,4.304378101,0.386108022,-1.522964619,4.58215795
11.18535067,4.524595352,0.454620432,-1.53337968,4.798947393
11.19540267,4.886932104,0.248466904,-1.471172322,5.109617323
11.20545467,5.026613315,-0.208306473,-1.325708799,5.202666319
11.21550567,4.807136906,-0.681992921,-1.074928737,4.972841377
11.22555767,4.276836546,-0.911596708,-0.706563506,4.429624294
11.23560967,3.420200157,-0.845575796,-0.307568185,3.536575424
11.24566167,2.53472764,-0.400639522,0.031918781,2.566393392
11.25571267,1.741678551,0.467212996,0.304254056,1.828743473
11.26576467,1.181632236,1.40244181,0.474705033,1.894318516
11.27581667,1.109678739,2.108644543,0.441461273,2.423356509
11.28586867,1.437421024,2.476915634,0.280807817,2.877523812
11.29591967,1.774563877,2.384722584,-0.063337022,2.973212124
11.30597167,2.002371984,1.708859884,-0.54529496,2.688315877
11.31602367,2.20246078,0.674061173,-1.039377666,2.52695427
11.32607567,2.290571303,-0.38324464,-1.338585538,2.680560499
11.33612667,2.200838177,-1.370276862,-1.449635857,2.970318414
11.34617867,2.077571855,-2.082919718,-1.40517246,3.260271309
11.35623067,1.903626544,-2.373327531,-1.370545249,3.336895543
11.36628267,1.73023555,-2.324472874,-1.407748743,3.221590559
11.37633367,1.785819182,-1.908532943,-1.447452507,2.987769554
11.38638567,2.187296026,-1.140452051,-1.277602587,2.777978249
11.39643767,2.528810257,-0.295764447,-0.95099817,2.717858614
11.40648967,2.568039227,0.293386969,-0.703655101,2.678811656
11.41654067,2.758018772,0.698199649,-0.476449916,2.884641194
11.42659267,2.805623294,0.990113704,-0.232318137,2.984261873
11.43664467,2.667919026,0.935226476,0.100006099,2.828858729
11.44669667,2.18876777,0.681401768,0.622584625,2.375420875
11.45674767,1.366148728,0.285045916,1.067923699,1.757291822
11.46679967,0.632793864,-0.259308811,1.355557666,1.518290394
11.47685167,-0.054678483,-0.806157669,1.58469616,1.778803486
11.48690367,-0.790206172,-1.308227671,1.721293988,2.301898874
11.49695467,-1.468398403,-1.777476083,1.725022173,2.879464636
11.50700667,-1.972855824,-2.126820321,1.659949679,3.342298269
11.51705867,-2.422932969,-2.33938766,1.56431262,3.713544502
11.52711067,-2.829747151,-2.443540896,1.391997514,3.989488455
11.53716167,-3.08293919,-2.52289229,1.250583626,4.175339383
11.54721367,-3.309608844,-2.543430343,1.11415778,4.320173164
11.55726567,-3.487482314,-2.586867554,0.938674579,4.442468525
11.56731767,-3.612464794,-2.654708996,0.81846635,4.557111904
11.57736867,-3.722877767,-2.786908695,0.752611572,4.710955648
11.58742067,-3.878779154,-3.018138592,0.780871165,4.976328774
11.59747267,-4.071684061,-3.205415846,0.872995217,5.25503782
11.60752467,-4.259208945,-3.331805752,0.948447469,5.490113205
11.61757567,-4.546812433,-3.351833342,1.002266703,5.736970333
11.62762767,-4.756053876,-3.391083947,0.93076198,5.914880951
11.63767967,-4.791543551,-3.524430285,0.800318785,6.001750461
11.64773167,-4.655402829,-3.705800389,0.747078717,5.996987463
11.65778267,-4.514852137,-3.953149598,0.845531795,6.060214978
11.66783467,-4.384591375,-4.276181073,0.994295633,6.204755426
11.67788667,-4.201377059,-4.579533452,1.056015333,6.303876919
11.68793867,-4.034453085,-4.943364167,0.958081634,6.452253978
11.69799067,-3.891359439,-5.29033502,0.777630638,6.61324673
11.70804167,-3.8261203,-5.489800503,0.66985951,6.72501434
11.71809367,-3.801829212,-5.570775669,0.587843978,6.770007936
11.72814567,-3.811185341,-5.401897556,0.624029911,6.640409945
11.73819767,-3.712279689,-5.112480261,0.750056119,6.362472718
11.74824867,-3.355736359,-4.946042776,0.819646464,6.032920187
11.75830067,-2.921098201,-5.024187305,0.836943624,5.871605181
11.76835267,-2.611574087,-5.238258548,0.820185504,5.910361756
11.77840467,-2.337915623,-5.398152999,0.696567252,5.92377508
11.78845567,-2.024972641,-5.406084747,0.450039212,5.790406012
11.79850767,-1.866837618,-5.136508225,0.216000824,5.469502335
11.80855967,-1.871732322,-4.681779619,-0.057875741,5.042399418
11.81861167,-1.947675374,-4.073395541,-0.316235037,4.526145733
11.82866267,-2.03096136,-3.312463162,-0.418859446,3.90802501
11.83871467,-2.060091603,-2.262417544,-0.228546683,3.068345506
11.84876667,-1.825450441,-1.167785152,0.163827288,2.173207504
11.85881867,-1.337703778,-0.274019821,0.569704819,1.479561367
11.86886967,-0.646839461,0.36964694,0.870204853,1.145555164
11.87892167,0.120512869,0.626975884,1.046719429,1.226068381
11.88897367,0.895356066,0.538190593,1.14130282,1.547218061
11.89902567,1.637554259,0.270569379,1.049961053,1.963978093
11.90907667,2.17009878,-0.199496473,0.70054906,2.289082031
11.91912954,2.461576633,-0.819504231,-0.042867107,2.594760932
11.92918154,2.602729003,-1.332713179,-0.990454012,3.087283893
11.93923354,2.370841879,-1.621895415,-1.788349857,3.383730363
11.94928454,1.959754552,-1.67087988,-2.459865153,3.561378111
11.95933654,1.695444617,-1.376125832,-3.060577683,3.759706174
11.96938854,1.528098475,-0.818951084,-3.292252554,3.720845697
11.97944054,1.562487704,-0.110473784,-3.087609361,3.462210833
11.98949154,1.538151008,0.652850398,-2.531030445,3.032859588
11.99954354,1.606088637,1.280393463,-1.821205362,2.745126063
12.00959554,1.750189174,1.82803491,-1.051728154,2.740621442
12.01964754,1.823924902,2.248209395,-0.403216975,2.922966209
12.02969854,1.896726245,2.648238468,0.205195169,3.263869251
12.03975054,1.962998003,3.025748743,0.678403316,3.669979247
12.04980254,2.161185284,3.124136333,0.828921171,3.88819495
12.05985454,2.248873639,3.274630215,0.70944209,4.035336884
12.06990554,2.003308123,3.426806341,0.348315128,3.984666682
12.07995754,1.563509797,3.291946744,-0.31798679,3.658222499
12.09000954,1.171531756,2.958705738,-1.09986945,3.36691834
12.10006154,0.940590127,2.572073221,-1.55547163,3.149565436
12.11011354,0.796829313,2.198564195,-1.771989348,2.934036081
12.12016454,0.761270056,1.91390478,-1.72163605,2.684510066
12.13021654,0.816042094,1.754980967,-1.494852961,2.445499595
12.14026854,1.002012203,1.763939486,-1.163849099,2.338815019
12.15032054,1.298249105,1.848465666,-0.782735769,2.390596441
12.16037154,1.604735591,2.002309418,-0.538807474,2.62197117
12.17042354,1.883274141,2.092919626,-0.399204031,2.843659246
12.18047554,1.998644384,2.118936228,-0.40596809,2.940965861
12.19052754,1.986457617,2.03988655,-0.433854631,2.88017028
12.20057854,1.869333209,1.903164614,-0.474643638,2.70956247
12.21063054,1.837668782,1.844731634,-0.508804826,2.653100772
12.22068254,2.01542063,1.910143851,-0.4300019,2.809888162
12.23073454,2.218385671,2.001909469,-0.441109856,3.020505655
12.24078554,2.620640194,2.104030505,-0.609417865,3.41556577
12.25083754,3.11619289,2.111329,-0.93183626,3.877716737
12.26088954,3.551829752,1.956316389,-1.357482569,4.276146318
12.27094154,3.862411044,1.606172837,-1.767367124,4.541100836
12.28099254,4.044332541,1.141385851,-2.005662796,4.656401037
12.29104454,4.093854364,0.696678788,-1.935885633,4.581774555
12.30109654,4.102888312,0.363989759,-1.629568132,4.429635803
12.31114854,4.220921962,0.024545442,-1.25349861,4.403185602
12.32119954,4.446267806,-0.437191637,-0.93713793,4.564938272
12.33125154,4.657124834,-0.958926995,-0.729916116,4.810522865
12.34130354,4.515211156,-1.348225257,-0.576228485,4.747302644
12.35135554,4.043454289,-1.500652229,-0.393109478,4.330821488
12.36140654,3.37101221,-1.282477995,-0.228343711,3.613947146
12.37145854,2.712529188,-0.695150326,-0.064661439,2.800933715
12.38151054,2.255130159,0.197485031,0.070050228,2.264844235
12.39156254,1.95206254,1.196108188,0.215762258,2.299516538
12.40161454,1.958813151,2.128397022,0.23980895,2.902504294
12.41166554,2.020752121,2.752107237,0.205994484,3.420521467
12.42171754,2.082449602,2.839968084,-0.041880097,3.521898495
12.43176954,2.097995009,2.506035352,-0.457290892,3.300138059
12.44182154,1.925372339,1.728486063,-0.902186199,2.740193908
12.45187254,1.89929902,0.754297836,-1.350225005,2.449369216
12.46192454,1.88395768,-0.212571432,-1.692906341,2.541734651
12.47197654,1.700180862,-1.13662037,-1.855663004,2.761522409
12.48202854,1.626391339,-2.006251611,-2.008317432,3.271625471
12.49207954,1.311053338,-2.562023027,-2.063677701,3.541410524
12.50213154,0.949878429,-2.801301032,-2.001829947,3.571677426
12.51218354,0.688661671,-2.763953696,-1.983056876,3.470764974
12.52223554,0.569298365,-2.346061964,-1.715121667,2.961376319
12.53228654,0.859431358,-1.701230437,-1.180458115,2.241938586
12.54233854,1.092842267,-1.023918797,-0.435159144,1.559511912
12.55239054,1.128728383,-0.572624846,0.346703599,1.312299646
12.56244254,1.287011341,-0.194940907,1.044023863,1.668647949
12.57249354,1.28886257,0.225810113,1.790348436,2.21754469
12.58254554,1.2962745,0.42086738,2.381301963,2.743730302
12.59259754,1.17066286,0.359817186,2.692101356,2.957588485
12.60264954,0.926185511,0.159597412,2.732802655,2.889896414
12.61270054,0.396269313,-0.14193005,2.584314952,2.618369202
12.62275254,-0.471986078,-0.569934542,2.179989345,2.30216198
12.63280454,-1.059697325,-1.036016978,1.561360946,2.152704718
12.64285654,-1.524478464,-1.435377422,1.016194625,2.327443758
12.65290754,-2.129465894,-1.757193261,0.735197321,2.857073371
12.66295954,-2.665541548,-2.040527697,0.452927663,3.387330585
12.67301154,-3.077704763,-2.27494842,0.143680122,3.829921787
12.68306354,-3.470413706,-2.481295783,-0.066248369,4.26673047
12.69311454,-3.824737433,-2.683329071,-0.167461917,4.675137947
12.70316654,-4.112470145,-2.993419488,-0.180607043,5.089753415
12.71321854,-4.530570622,-3.253108953,-0.179353985,5.580408218
12.72327054,-4.84309085,-3.291877162,-0.191129692,5.859054087
12.73332154,-5.141870706,-3.155787019,-0.218903345,6.03703112
12.74337354,-5.296189252,-2.933265965,-0.266003837,6.060068305
12.75342554,-5.23741421,-2.709137511,-0.28731935,5.903599416
12.76347754,-5.154691896,-2.476946916,-0.264902294,5.725057886
12.77352954,-5.170950079,-2.364316679,-0.279192853,5.69268537
12.78358054,-5.037561057,-2.354131999,-0.284416171,5.56775102
12.79363254,-4.741863853,-2.350561104,-0.262701987,5.299002042
12.80368454,-4.43707189,-2.448297898,-0.335826097,5.078833402
12.81373654,-4.123871046,-2.677172537,-0.521737149,4.944266867
12.82378754,-3.999056965,-3.135895084,-0.733729085,5.134652175
12.83383954,-4.050464516,-3.823848949,-0.859262373,5.636170278
12.84389154,-4.236744527,-4.395662493,-0.891109818,6.169759286
12.85394354,-4.29565581,-4.64950562,-0.701036133,6.368831369
12.86399454,-4.431879562,-4.671032144,-0.396009697,6.451117843
12.87404654,-4.2199905,-4.669077128,0.019995157,6.293568213
12.88409854,-3.094796174,-4.664682945,0.659958858,5.636716778
12.89415054,-1.831160247,-4.657226576,0.757175251,5.061247039
12.90420154,-1.217874448,-4.899878716,0.409923146,5.06557663
12.91425342,-0.771476955,-5.396398249,0.053630662,5.451528869
12.92430542,-0.799254738,-5.646824555,-0.455850686,5.721296666
12.93435742,-0.991838633,-5.619925609,-0.901954064,5.777614461
12.94440842,-1.193978047,-5.145235779,-1.094569534,5.394174382
12.95446042,-1.500742276,-4.070756401,-1.072670542,4.469217733
12.96451242,-1.802255121,-2.599966779,-0.688497364,3.237588515
12.97456442,-1.532221346,-1.05254501,-0.106038671,1.861933794
12.98461542,-0.815435738,0.224214408,0.455326739,0.960484244
12.99466742,-0.058227158,0.994212602,0.942643084,1.371285924
13.00471942,0.895867698,1.131414009,1.082113795,1.803786811
13.01477142,1.968386212,0.989169379,0.887828946,2.375129591
13.02482242,3.118645797,0.79012665,0.464517393,3.250542746
13.03487442,4.108242608,0.411793671,-0.089491051,4.129799026
13.04492642,4.624648229,-0.233661754,-0.738807977,4.689115725
13.05497842,4.375184959,-0.859153031,-1.358893502,4.661220753
13.06503042,3.782566144,-1.079625805,-1.687349732,4.280250884
13.07508142,3.293900884,-1.053642533,-1.989694635,3.989840894
13.08513342,3.172723187,-0.75171629,-2.429963077,4.066444436
13.09518542,3.251337247,-0.139039772,-2.845362725,4.322801752
13.10523742,3.43358268,0.521397389,-3.063407736,4.630962342
13.11528842,3.515929018,1.237826902,-2.822640445,4.675603852
13.12534042,3.575981092,1.924570686,-2.340346895,4.687092562
13.13539242,3.536769079,2.500629601,-1.586900414,4.61303987
13.14544442,3.431044403,2.861153131,-0.595565811,4.506990301
13.15549542,3.302344263,2.973387512,0.196714368,4.448056595
13.16554742,2.925439174,3.057196823,0.724879324,4.293028862
13.17559942,2.328630829,3.048285082,1.035921961,3.973373603
13.18565142,1.703581018,2.880292237,1.078564535,3.515902887
13.19570242,1.111777305,2.733769199,0.96922745,3.106275046
13.20575442,0.727709962,2.561044788,0.730780334,2.760896972
13.21580642,0.552099364,2.442124701,0.476189093,2.548635481
13.22585842,0.381555964,2.372018339,0.222615194,2.412801998
13.23590942,0.270765261,2.334046521,0.025036608,2.349832721
13.24596142,0.22084992,2.29717047,-0.066986863,2.308734306
13.25601342,0.134268444,2.289063891,-0.096845094,2.295042588
13.26606542,0.143387176,2.366943541,-0.08492729,2.372803037
13.27611642,0.214730224,2.480526874,-0.111451439,2.492296946
13.28616842,0.361497091,2.605546777,-0.15168613,2.634874349
13.29622042,0.612185352,2.71038443,-0.17077495,2.783903509
13.30627242,0.99059493,2.749635034,-0.171791781,2.927675452
13.31632442,1.304341319,2.705745834,-0.194340398,3.010005811
13.32637542,1.630568005,2.736728475,-0.094662328,3.187066947
13.33642742,1.930203894,2.747867421,-0.009556698,3.358058035
13.34647942,2.152995674,2.692939262,-0.076790898,3.448653227
13.35653142,2.529522448,2.581598336,-0.265794543,3.624055811
13.36658242,2.867482157,2.319577001,-0.517199088,3.72429675
13.37663442,3.092880042,1.835429884,-0.715217385,3.666912287
13.38668642,3.424114283,1.328466346,-0.825086567,3.764325876
13.39673842,3.729384549,0.856767951,-0.907408347,3.932651821
13.40678942,3.839689933,0.443761568,-0.981581447,3.987937468
13.41684142,3.980430075,0.089996835,-1.075480714,4.124146188
13.42689342,4.141117408,-0.067754611,-1.025211031,4.26667338
13.43694542,4.265463712,-0.218956591,-0.946716254,4.374745059
13.44699642,4.607900049,-0.609635966,-0.89769963,4.733947982
13.45704842,4.810111969,-1.123740124,-0.744382128,4.995405266
13.46710042,4.649574324,-1.517948878,-0.317619585,4.901386783
13.47715242,4.16821399,-1.611418959,0.1899468,4.472891539
13.48720342,3.419862773,-1.288035774,0.665755788,3.714529352
13.49725542,2.553068016,-0.606091384,1.038984733,2.822231801
13.50730742,1.820881426,0.333379,1.181762044,2.196204056
13.51735942,1.426763304,1.313543082,1.108776514,2.233928001
13.52741142,1.328489735,2.110869409,0.924212075,2.659853868
13.53746242,1.354138547,2.570478685,0.631964729,2.973286279
13.54751442,1.404748537,2.533212626,0.223371824,2.905233146
13.55756642,1.51277877,1.994356036,-0.27578336,2.518335177
13.56761842,1.503118,1.15598401,-0.618823112,1.994644027
13.57766942,1.437666607,0.179844566,-0.689257502,1.604464161
13.58772142,1.382766514,-0.823103192,-0.70226054,1.75576535
13.59777342,1.15908128,-1.727014904,-0.550936353,2.151646058
13.60782542,0.757986844,-2.394107366,-0.263881334,2.525059899
13.61787642,0.384376661,-2.735765439,0.017990731,2.76269463
13.62792842,0.093876463,-2.694966491,0.356215301,2.720026934
13.63798042,-0.004017037,-2.336418151,0.833221214,2.480549033
13.64803242,0.211787905,-1.785253757,1.323152397,2.232200116
13.65808342,0.285949311,-1.09999692,1.878227409,2.195335608
13.66813542,0.125073697,-0.486663759,2.356757691,2.409728586
13.67818742,0.204167814,-0.112333199,2.593111503,2.603561121
13.68823942,0.348368922,0.201268179,2.862686856,2.89082096
13.69829042,0.366597617,0.407573735,3.201741164,3.248331363
13.70834242,0.268652077,0.450513348,3.368708407,3.409300888
13.71839442,0.121163664,0.321348354,3.355623507,3.373152016
13.72844642,-0.179446371,0.028584114,3.197904221,3.203062512
13.73849742,-0.685391908,-0.371211655,2.843284625,2.948190567
13.74854942,-1.171867971,-0.71725514,2.367403132,2.737211549
13.75860142,-1.502943168,-0.902312499,1.943954791,2.61762607
13.76865342,-1.81317655,-0.983890513,1.606578634,2.614716935
13.77870542,-2.134304464,-1.085231531,1.363763648,2.75550981
13.78875642,-2.355868329,-1.184981521,1.115948124,2.863500831
13.79880842,-2.54409254,-1.260465275,0.968310606,2.999800825
13.80886042,-2.785333455,-1.341403896,0.87493525,3.212936128
13.81891242,-3.011258758,-1.457255364,0.774103525,3.433731028
13.82896342,-3.25451287,-1.555946716,0.712170986,3.676956855
13.83901542,-3.470135964,-1.659931261,0.675271547,3.905535438
13.84906742,-3.594834854,-1.781184972,0.599892751,4.056516836
13.85911942,-3.658697559,-1.933825659,0.438292083,4.16147203
13.86917042,-3.632144768,-2.12245479,0.254850876,4.214527128
13.87922242,-3.692621934,-2.206227556,0.15416418,4.304261072
13.88927442,-3.865253375,-2.232089498,0.101381382,4.464603607
13.89932642,-3.960084688,-2.309978212,-0.011899066,4.584584132
13.90937742,-3.973449084,-2.376271896,-0.116560736,4.631258161
13.91942854,-3.869476234,-2.536335916,-0.116239139,4.6281052
13.92948054,-3.68202561,-2.809072274,-0.119189653,4.632753588
13.93953254,-3.46752869,-3.142329652,-0.082692502,4.680259492
13.94958454,-3.17228523,-3.419479488,-0.038316804,4.664515165
13.95963554,-2.762648597,-3.737565973,0.002930615,4.647755938
13.96968754,-2.424508794,-4.059988168,0.137597848,4.730822337
13.97973954,-2.21692913,-4.191879134,0.284765268,4.750549094
13.98979154,-2.212683467,-4.185645125,0.332919409,4.746201488
13.99984254,-2.183576612,-4.259357464,0.169502596,4.789453409
14.00989454,-1.981972802,-4.539178016,-0.075058332,4.953583249
14.01994654,-1.822257276,-4.968948074,-0.197766848,5.296241901
14.02999854,-1.592302072,-5.526988794,-0.196986848,5.755157238
14.04004954,-1.647436053,-5.911101161,-0.066700358,6.136742737
14.05010154,-1.840852007,-6.001359951,0.193536991,6.280327535
14.06015354,-1.892588755,-5.751239455,0.404035512,6.068104495
14.07020554,-2.01282622,-4.748792803,0.500663162,5.182004061
14.08025654,-2.408980343,-2.994159746,0.663417998,3.899782342
14.09030854,-2.69106289,-1.114562919,0.776698446,3.014519938
14.10036054,-2.452173141,0.544804963,0.850350047,2.651991848
14.11041254,-1.793904127,1.787673919,0.907029521,2.690087845
14.12046454,-0.941450837,2.248036317,0.781217247,2.55935487
14.13051554,-0.124918161,2.003905708,0.540461578,2.079264618
14.14056754,0.424135389,1.254720678,0.157618715,1.333813505
14.15061954,0.466014901,0.256346612,-0.385929024,0.657133689
14.16067154,0.510668918,-0.858176546,-1.005890661,1.417415165
14.17072254,0.672611064,-1.956466663,-1.454401338,2.528922834
14.18077454,0.49987028,-2.786847884,-1.787192109,3.34820057
14.19082654,0.187178729,-2.970497818,-2.065788546,3.623034016
14.20087854,0.093838456,-2.651713468,-2.289749769,3.504760188
14.21092954,0.275932446,-1.981574607,-2.409522965,3.131864869
14.22098154,0.79433723,-1.099932016,-2.189136729,2.575488632
14.23103354,1.376015319,-0.182156555,-1.54049925,2.073580745
14.24108554,1.883198127,0.668737868,-0.68592744,2.112851622
14.25113654,2.36188336,1.333902503,0.15892279,2.717175987
14.26118854,2.644223185,1.874523198,0.909460647,3.366433148
14.27124054,2.881328364,2.28819324,1.477096721,3.964807204
14.28129254,2.906975421,2.748862617,1.894676796,4.426799289
14.29134354,2.908132585,2.947969081,2.000649394,4.598951493
14.30139554,2.859722317,3.006286286,1.834058712,4.536467825
14.31144754,2.598519593,3.090903683,1.492824562,4.30517303
14.32149954,2.135011978,3.026653308,0.954118245,3.824819998
14.33155154,1.747697091,2.839770448,0.433805002,3.362577597
14.34160254,1.506136917,2.637968418,0.078413574,3.038663271
14.35165454,1.35818365,2.499141485,-0.113395053,2.84661719
14.36170654,1.300156467,2.414287861,-0.193717158,2.748948718
14.37175854,1.390082551,2.452577183,-0.059828711,2.819759531
14.38180954,1.538935704,2.528141336,0.182361865,2.965312389
14.39186154,1.476023172,2.56694112,0.429089808,2.991980812
14.40191354,1.493981141,2.607811403,0.566212862,3.058309495
14.41196554,1.51559128,2.728917764,0.665236555,3.191637318
14.42201654,1.461765906,2.737704375,0.693292665,3.180006216
14.43206854,1.493065467,2.69693291,0.587198446,3.138071641
14.44212054,1.519790751,2.633193582,0.379608293,3.06391495
14.45217254,1.569720125,2.626462267,0.171453227,3.064591575
14.46222454,1.755727072,2.653779874,0.031542257,3.182156515
14.47227554,2.000566363,2.633015826,-0.147664378,3.310112216
14.48232754,2.295439695,2.524500859,-0.410226617,3.436631179
14.49237954,2.618329375,2.279377978,-0.694361537,3.540247255
14.50243154,2.938412392,1.91044966,-0.926500676,3.625257065
14.51248254,3.301285332,1.357939821,-1.094253784,3.733614435
14.52253454,3.600235927,0.691976457,-1.218094304,3.863196071
14.53258654,3.790321307,0.141043612,-1.246163278,3.99241178
14.54263854,3.867369483,-0.133034681,-1.18910147,4.048235078
14.55268954,3.771526601,-0.179944553,-0.974024506,3.899425174
14.56274154,3.929753426,-0.220393252,-0.728842567,4.002842323
14.57279354,4.387951185,-0.349475216,-0.526682103,4.433242895
14.58284554,4.798041562,-0.688435383,-0.259583631,4.854125026
14.59289654,4.870394424,-1.126367862,0.134867198,5.000763498
14.60294854,4.514797758,-1.377962442,0.641287529,4.763762062
14.61300054,3.896814306,-1.392015055,1.065908895,4.273058556
14.62305254,3.309476112,-1.221438326,1.329367987,3.769849197
14.63310454,2.796918544,-0.840634899,1.456175383,3.263413415
14.64315554,2.141522267,-0.294528345,1.620264627,2.701503661
14.65320754,1.464127012,0.286403055,1.691598319,2.255482097
14.66325954,0.941445574,0.822973968,1.672248713,2.088066493
14.67331154,0.721704286,1.25079895,1.468946872,2.059893202
14.68336254,0.767301459,1.324293188,1.133148293,1.904344778
14.69341454,0.790110278,1.046273872,0.809612496,1.540920393
14.70346654,0.853453165,0.452613668,0.489214278,1.082853659
14.71351854,0.876115803,-0.309082065,0.225352897,0.955978322
14.72356954,0.769946154,-1.076986957,0.159530791,1.333479681
14.73362154,0.520895113,-1.718113103,0.309316539,1.821790623
14.74367354,0.162988213,-2.190068191,0.535420109,2.260450957
14.75372554,-0.178003278,-2.371819534,0.815274866,2.51433613
14.76377754,-0.484720729,-2.405541596,0.97154302,2.639219656
14.77382854,-0.687464161,-2.246554633,1.024151516,2.562908703
14.78388054,-0.560983039,-1.849228728,1.159928614,2.253837449
14.79393254,-0.251417409,-1.239119722,1.449867407,1.923731763
14.80398454,0.084325036,-0.519055579,1.648789684,1.73061747
14.81403554,0.130922082,0.115157404,1.741889051,1.750593981
14.82408754,0.230431752,0.581145408,1.788712531,1.894814317
14.83413954,0.472253296,0.817536643,1.788609474,2.022501715
14.84419154,0.587489052,0.860300839,1.756641722,2.042315123
14.85424254,0.460193413,0.821468895,1.788146374,2.020904891
14.86429454,0.129230483,0.712185019,1.731848212,1.877020578
14.87434654,-0.326244228,0.560884221,1.553163149,1.683253449
14.88439854,-0.797083082,0.398405886,1.439871153,1.693309667
14.89445054,-1.183764131,0.149757133,1.407282282,1.84503879
14.90450154,-1.459731075,-0.052199264,1.407177909,2.028223174
14.91455379,-1.615507332,-0.228264774,1.492419934,2.211172994
14.92460579,-1.782731268,-0.467757372,1.619133775,2.453267599
14.93465779,-1.961504039,-0.661253432,1.707177933,2.68313449
14.94470879,-2.010901902,-0.752037302,1.830483724,2.821339615
14.95476079,-2.134112091,-0.828193193,2.011278462,3.047224874
14.96481279,-2.287123784,-0.930593142,2.188790574,3.299658009
14.97486479,-2.403744162,-1.012920184,2.316030811,3.4882649
14.98491579,-2.443870679,-1.053582307,2.485830299,3.641688049
14.99496779,-2.468224917,-1.194129198,2.548236462,3.743205558
15.00501979,-2.557679715,-1.414107883,2.446810805,3.811601992
15.01507179,-2.724290863,-1.591261268,2.299901851,3.904282476
15.02512279,-2.921640823,-1.733840066,2.083708946,3.985477317
15.03517479,-3.031477845,-1.921906695,1.944609679,4.082289808
15.04522679,-2.969158221,-2.136560613,1.930998677,4.1363689
15.05527879,-2.716212934,-2.401983565,1.930419802,4.107780223
15.06533079,-2.540581287,-2.604148415,1.99682663,4.150115521
15.07538179,-2.448103479,-2.661491767,2.12064493,4.192121657
15.08543379,-2.33255665,-2.644601207,2.145487264,4.127693263
15.09548579,-2.094420022,-2.757594264,2.062456802,4.030465161
15.10553779,-1.950139391,-2.953049142,2.011659847,4.070665574
15.11558879,-2.066227087,-3.107120643,2.075216742,4.269662468
15.12564079,-2.480779474,-3.344551512,2.183468438,4.701896005
15.13569279,-3.402378429,-3.729269359,2.116702591,5.473943622
15.14574479,-4.023570832,-4.21234088,1.775495485,6.089771929
15.15579679,-3.510373578,-4.488001723,1.544716262,5.903476133
15.16584779,-2.35798736,-4.54343742,1.568990539,5.353938671
15.17589979,-1.10506704,-4.646054885,1.761194072,5.090069127
15.18595179,-0.256112139,-4.54591664,2.012975324,4.978254833
15.19600379,-0.039424852,-4.093256194,2.252915526,4.672464977
15.20605479,0.041556746,-3.347464303,2.400681975,4.119528877
15.21610679,-0.118717189,-2.480089502,2.33310892,3.407100665
15.22615879,-0.592093735,-1.442361921,2.15802618,2.662341055
15.23621079,-1.224495835,-0.250716328,1.955986314,2.321234841
15.24626179,-1.627000034,0.860065196,1.694947458,2.501936877
15.25631379,-1.721232008,1.66516715,1.392378752,2.770223791
15.26636579,-1.411924825,2.028535935,1.004743438,2.667957857
15.27641779,-0.975432515,2.010637608,0.697740058,2.341147874
15.28646879,-0.52791645,1.797472683,0.496181856,1.937988715
15.29652079,-0.150353549,1.328563995,0.159584402,1.346534686
15.30657279,0.224505599,0.431362547,-0.433500874,0.651459453
15.31662479,0.381884578,-0.651990273,-1.047505222,1.291585978
15.32667679,0.442923662,-1.688613315,-1.641836029,2.396502002
15.33672779,0.463628068,-2.36985253,-2.079718952,3.18690805
15.34677979,0.668158994,-2.588953548,-2.422623067,3.608076972
15.35683179,0.826995683,-2.195051773,-2.517703471,3.441076127
15.36688379,0.927597029,-1.64952117,-2.529501983,3.159072114
15.37693479,1.064279203,-1.096421932,-2.384450104,2.832037001
15.38698679,1.138040074,-0.406489661,-1.901071311,2.252652034
15.39703879,1.169962363,0.218520389,-1.387845991,1.828299643
15.40709079,1.383016191,0.787730461,-0.801405344,1.781994273
15.41714279,1.616561585,1.456943123,-0.188910747,2.18440882
15.42719379,1.757309913,2.065279253,0.271841733,2.72532832
15.43724579,1.924460174,2.452715178,0.443258708,3.148942201
15.44729779,2.003335605,2.751685068,0.342518272,3.420883369
15.45734979,1.893486888,2.90336652,-0.080997934,3.46718768
15.46740079,1.701737975,2.843670541,-0.693196771,3.385689892
15.47745279,1.335261396,2.653428456,-1.254925915,3.224661939
15.48750479,1.086080546,2.378243285,-1.619727852,3.075569929
15.49755679,1.026954086,2.13057628,-1.811608912,2.979247695
15.50760779,0.974833176,1.991651698,-1.84094907,2.882025275
15.51765979,0.951057812,1.901776485,-1.750236536,2.754013924
15.52771179,0.996219367,1.921739464,-1.637753649,2.714364126
15.53776379,1.118093467,2.015796021,-1.465754292,2.731666569
15.54781579,1.164620347,2.141719319,-1.293655533,2.759863553
15.55786679,1.379923598,2.226253685,-1.174635458,2.870568422
15.56791879,1.616506037,2.255708449,-0.995397248,2.948241519
15.57797079,1.769776762,2.296989791,-0.761375306,2.997993369
15.58802279,1.905637402,2.292674546,-0.477061425,3.019171755
15.59807379,1.942798796,2.254334938,-0.266114934,2.987860494
15.60812579,1.947795242,2.190808448,-0.198132902,2.938163475
15.61817779,2.00850162,2.203312134,-0.205767064,2.988478409
15.62822979,2.16456439,2.191124198,-0.293243676,3.093922446
15.63828079,2.321097862,1.964232935,-0.446576454,3.073294134
15.64833279,2.350170802,1.590633861,-0.634840389,2.90799608
15.65838479,2.45512423,1.218787199,-0.749072764,2.841511434
15.66843679,2.699962937,0.778369653,-0.779791696,2.916116299
15.67848879,2.880331998,0.332604829,-0.747082372,2.994172751
15.68853979,2.889249587,-0.005303425,-0.699812311,2.972798105
15.69859179,2.986970594,-0.205336087,-0.574071447,3.048559375
15.70864379,3.117906709,-0.323986618,-0.389119265,3.158753453
15.71869579,3.543931333,-0.580047886,-0.2251868,3.598140345
15.72874679,4.039908537,-1.034915655,-0.146079783,4.172918727
15.73879879,4.201635506,-1.466034958,-0.029659344,4.450154952
15.74885079,3.930781367,-1.593784926,0.415979035,4.26195156
15.75890279,3.385676442,-1.385605922,1.122781107,3.826662535
15.76895379,2.924001929,-0.955646122,1.712467031,3.520737156
15.77900579,2.499899869,-0.432823766,2.102447079,3.295014338
15.78905779,1.99558629,0.161735739,2.395277978,3.121839151
15.79910979,1.391995175,0.793396997,2.671867651,3.115446373
15.80916179,1.013783818,1.3164778,2.785576115,3.243502076
15.81921279,0.88377741,1.491422984,2.552493235,3.085551286
15.82926479,0.809624775,1.360690936,2.086093587,2.618923167
15.83931679,0.849889871,0.745754469,1.459253358,1.846045201
15.84936879,0.850304439,-0.111498801,0.941751384,1.27371319
15.85941979,0.803526714,-0.935012468,0.645350175,1.39153884
15.86947179,0.521150052,-1.734360176,0.603623201,1.908916857
15.87952379,0.22502834,-2.379613287,0.672792254,2.483112275
15.88957579,-0.122554132,-2.798967408,0.788481901,2.910488236
15.89962779,-0.439080287,-2.871888619,0.957959865,3.059121253
15.90967879,-0.672057917,-2.543177451,1.131126326,2.86336518
15.91973071,-0.6279933,-2.063015211,1.282775034,2.50916702
15.92978271,-0.290400211,-1.36454776,1.545756043,2.082230683
15.93983471,0.084324451,-0.430476694,1.894204341,1.944333018
15.94988571,0.407504738,0.297515688,2.238917438,2.295065792
15.95993771,0.73492718,0.756277118,2.555517415,2.764551012
15.96998971,1.018527664,1.222220684,2.782589357,3.20531208
15.98004171,1.259218356,1.594367893,2.874267851,3.519809019
15.99009271,1.386908682,1.829220725,3.002894024,3.779806433
16.00014471,1.327185806,1.885590808,3.067112532,3.837193524
16.01019671,1.193937702,1.683853097,2.991249586,3.634339359
16.02024871,0.731148709,1.383792701,2.742296194,3.157475113
16.03030071,0.055097728,0.910893872,2.364485371,2.534473215
16.04035171,-0.412611696,0.345692652,2.009254156,2.080109152
16.05040371,-0.778945604,0.069940885,1.803502478,1.965774445
16.06045571,-1.218838654,-0.122154767,1.708970543,2.102634007
16.07050771,-1.524163299,-0.370924557,1.64698304,2.274469591
16.08055871,-1.77871657,-0.573103732,1.619274108,2.472716959
16.09061071,-2.038776748,-0.771426085,1.652161042,2.735204735
16.10066271,-2.201277303,-0.939473308,1.696926448,2.933903753
16.11071471,-2.262944963,-1.091538922,1.824369875,3.104948078
16.12076571,-2.322552649,-1.299754179,1.912422072,3.277341898
16.13081771,-2.364768376,-1.429002203,1.988977182,3.404439308
16.14086971,-2.3978145,-1.460336847,2.016146854,3.456435479
16.15092171,-2.382252136,-1.556044073,1.972194504,3.462073014
16.16097371,-2.378656098,-1.74421712,1.900698259,3.508981628
16.17102471,-2.376770956,-2.028491203,1.861610792,3.637225794
16.18107671,-2.391210655,-2.37094099,1.84175277,3.838137939
16.19112871,-2.413645252,-2.625529929,1.866754149,4.025402074
16.20118071,-2.425863009,-2.820017969,1.879745492,4.167823869
16.21123171,-2.310753552,-3.016787593,1.844486636,4.22406443
16.22128371,-2.274692604,-3.167941334,1.760356897,4.278894149
16.23133571,-2.095250911,-3.370138051,1.661402128,4.302111562
16.24138771,-1.852064043,-3.530601144,1.633305087,4.308476664
16.25143971,-1.791137225,-3.633858879,1.724534661,4.403081047
16.26149071,-1.847718392,-3.787467865,1.923309734,4.632288465
16.27154271,-1.885610104,-4.077137759,2.150694648,4.980367983
16.28159471,-1.935098598,-4.555195294,2.300591676,5.457758955
16.29164671,-1.948132042,-5.067688251,2.405932775,5.93845057
16.30169771,-2.086445589,-5.268817266,2.622192045,6.244163811
16.31174971,-2.48907141,-5.411901557,2.860352647,6.608008188
16.32180171,-2.893877658,-5.468199134,2.982065949,6.867928872
16.33185371,-3.368550532,-5.1396359,3.147038122,6.904117526
16.34190571,-3.858370618,-4.307125416,3.39112897,6.703589252
16.35195671,-4.009731057,-3.188797475,3.62339324,6.274978172
16.36200871,-4.027055773,-1.944567579,3.674693202,5.78808184
16.37206071,-3.743702626,-0.817072958,3.514219877,5.199294078
16.38211271,-3.053258139,0.109066944,3.171788217,4.403921134
16.39216371,-2.169611122,0.871440369,2.682547005,3.558465846
16.40221571,-1.192491685,1.318748859,2.115919064,2.763738131
16.41226771,-0.422193528,1.440541683,1.536436604,2.148032857
16.42231971,0.170257471,1.100167658,0.844230351,1.397169055
16.43237071,0.655739508,0.491650264,0.006854033,0.819610433
16.44242271,0.901592122,-0.277501838,-0.90813099,1.309418771
16.45247471,0.965326188,-1.027033609,-1.752561389,2.249027369
16.46252671,1.141019815,-1.749282271,-2.558802381,3.30293571
16.47257871,1.211886315,-2.126205486,-3.246273558,4.065428664
16.48262971,1.187457232,-2.135526533,-3.672294674,4.410926935
16.49268171,1.123504481,-1.900572544,-3.855919465,4.443259303
16.50273371,1.174405078,-1.301773807,-3.75420481,4.143415992
16.51278571,1.450557963,-0.475252333,-3.224627751,3.567661323
16.52283671,1.661907912,0.323724078,-2.370415617,2.913006245
16.53288871,1.901536165,0.877666485,-1.415333167,2.5277077
16.54294071,2.170530304,1.291250573,-0.642115495,2.605924433
16.55299271,2.309770635,1.655544972,-0.044369257,2.842153791
16.56304471,2.311545265,2.007951981,0.434218912,3.09251657
16.57309571,2.234649702,2.243540978,0.633333562,3.229279612
16.58314771,2.085322924,2.381101404,0.357918559,3.18532907
16.59319971,1.949892054,2.490801601,-0.228157185,3.171470848
16.60325171,1.710403549,2.47891889,-0.950059108,3.158026515
16.61330271,1.503257748,2.282234927,-1.739292303,3.239369975
16.62335471,1.292437558,2.100789394,-2.334280409,3.395964656
16.63340671,1.213624692,2.053467293,-2.71192751,3.611670477
16.64345871,1.221539483,2.024884349,-2.967408149,3.794446792
16.65350971,1.227169767,1.983278486,-3.01806901,3.814194507
16.66356171,1.320982495,1.941296062,-2.811036646,3.662724693
16.67361371,1.359405718,1.828342474,-2.564263095,3.430199022
16.68366571,1.403772637,1.744253665,-2.206106519,3.143231527
16.69371771,1.437345595,1.701149161,-1.747546232,2.830863589
16.70376871,1.409186574,1.646590546,-1.345492854,2.550964179
16.71382071,1.353843262,1.630590225,-1.024674842,2.354076165
16.72387271,1.414699913,1.681910067,-0.829602957,2.349135668
16.73392471,1.457458262,1.833647652,-0.654480017,2.43203462
16.74397671,1.468812386,1.890976093,-0.611427626,2.471243443
16.75402771,1.566768451,1.985314486,-0.686873007,2.620692946
16.76407971,1.669494089,2.046666396,-0.785596227,2.755578938
16.77413171,1.794353778,1.964248137,-0.957543544,2.827519384
16.78418371,1.921882136,1.855868826,-1.209797105,2.932829535
16.79423471,2.201259761,1.595011672,-1.574211372,3.141297218
16.80428671,2.572898263,1.151340736,-1.886822231,3.391974218
16.81433871,2.871262967,0.473105235,-2.038777333,3.553110272
16.82439071,3.086722339,-0.179255751,-1.996680889,3.68058718
16.83444171,3.144681695,-0.601007815,-1.855659496,3.700500712
16.84449371,3.20969747,-0.792491264,-1.678067277,3.707574684
16.85454571,3.388484859,-0.766824326,-1.433022164,3.758111455
16.86459771,3.925991912,-0.866017077,-1.282169262,4.219876312
16.87464971,4.520928563,-1.133550582,-1.158005977,4.802573252
16.88470071,4.718269753,-1.600934901,-0.858847221,5.055954961
16.89475271,4.384453965,-1.95336413,-0.43941007,4.819973984
16.90480471,3.742512133,-1.885159283,0.11699575,4.19212483
16.91485671,3.119087262,-1.586239094,0.696734337,3.567954393
16.92490817,2.436173404,-1.050894341,1.104256032,2.873795601
16.93496017,1.674911535,-0.387688524,1.433198165,2.238233236
16.94501217,1.008204989,0.359417236,1.842510277,2.130845412
16.95506417,0.628754023,1.032056952,2.155100087,2.470815565
16.96511617,0.509499475,1.467349997,2.352637743,2.819150595
16.97516717,0.469879326,1.532678599,2.41159171,2.895801244
16.98521917,0.530838304,1.053863558,2.18665634,2.484730097
16.99527117,0.466360472,0.284430789,1.722176918,1.806733599
17.00532317,0.510221606,-0.488902658,1.21745111,1.407671517
17.01537417,0.476593099,-1.238398175,0.84169266,1.571374416
17.02542617,0.329048553,-1.876432899,0.623410252,2.004473426
17.03547817,0.092800575,-2.250491563,0.518031732,2.311207714
17.04553017,-0.029371734,-2.254551285,0.545039948,2.319683759
17.05558117,-0.177489892,-1.962010993,0.485024199,2.028851466
17.06563317,0.02839291,-1.548627464,0.24275761,1.567796045
17.07568517,0.559628239,-0.947819624,0.261240805,1.131279171
17.08573717,0.778253294,-0.138726946,0.634676741,1.013774097
17.09578917,0.846699046,0.409412684,1.046779144,1.407218745
17.10584017,1.040403267,0.724409208,1.354560131,1.855273782
17.11589217,1.019963155,1.000419422,1.760783744,2.267492723
17.12594417,0.871393592,1.168768362,2.197900536,2.637444415
17.13599617,0.674043047,1.188293384,2.504783463,2.853123796
17.14604717,0.346068043,1.045062329,2.706968486,2.922258843
17.15609917,-0.088668348,0.808789208,2.842342054,2.956503071
17.16615117,-0.632809651,0.529467131,2.859203085,2.975873952
17.17620317,-1.063492752,0.240900022,2.66210894,2.876781824
17.18625517,-1.255390184,0.049520069,2.39757725,2.706812409
17.19630617,-1.469521068,-0.01167572,2.211734025,2.655446458
17.20635817,-1.633447759,-0.093589364,2.090834655,2.654901148
17.21641017,-1.693029717,-0.179950985,1.951048925,2.589464016
17.22646217,-1.77445278,-0.287880061,1.893141464,2.610659342
17.23651317,-1.822302884,-0.470212618,1.848465228,2.63793696
17.24656517,-1.859212264,-0.660721335,1.814173501,2.68038214
17.25661717,-1.898808439,-0.899890582,1.743188303,2.730198162
17.26666917,-1.978725259,-1.147871583,1.719372447,2.861678604
17.27672117,-2.148623711,-1.432264657,1.740533813,3.114068697
17.28677217,-2.332298788,-1.72742801,1.659299323,3.343187014
17.29682417,-2.449213865,-1.978775252,1.601138531,3.532399277
17.30687617,-2.584005634,-2.193839645,1.575065942,3.737760055
17.31692817,-2.674187826,-2.458338152,1.57132811,3.957749238
17.32697917,-2.773284098,-2.659383553,1.608579697,4.16544766
17.33703117,-2.820378157,-2.834309441,1.712064889,4.349598734
17.34708317,-2.771947424,-2.993846335,1.844170886,4.477474138
17.35713517,-2.672608493,-3.159003572,1.94058928,4.570342053
17.36718717,-2.569347249,-3.327954775,1.996575054,4.654367865
17.37723817,-2.441625933,-3.566292548,2.01208874,4.767439652
17.38729017,-2.3564244,-3.833166487,1.977294445,4.914834137
17.39734217,-2.352308545,-4.140254944,1.948724803,5.145152558
17.40739417,-2.399277474,-4.341046283,1.908074083,5.314316695
17.41744517,-2.384850639,-4.30848694,1.908064581,5.281219814
17.42749717,-2.453236164,-4.164651282,1.915402837,5.199178397
17.43754917,-2.642785939,-4.163659302,1.975515576,5.312535938
17.44760117,-2.517795857,-4.2973822,1.904793795,5.332450577
17.45765317,-2.22128706,-4.195145681,1.605611358,5.01112276
17.46770417,-2.095247988,-4.103531214,1.255563408,4.775507515
17.47775617,-1.79436138,-4.036180353,0.739779199,4.478588825
17.48780817,-1.565380322,-3.710414719,0.1604207,4.030301197
17.49786017,-1.821583092,-3.414457022,-0.199162159,3.875093197
17.50791117,-2.129923146,-3.298064101,-0.298487495,3.937371485
17.51796317,-2.387559654,-2.951808363,-0.213941288,3.802549748
17.52801517,-2.550222176,-2.244120437,0.000787181,3.397014911
17.53806717,-2.565069426,-1.303161059,0.322366501,2.895121771
17.54811917,-2.386575567,-0.153645239,0.532390155,2.450058994
17.55817017,-1.897351313,0.865957435,0.54637801,2.156003992
17.56822217,-1.311380782,1.565179762,0.430994904,2.086926892
17.57827417,-0.862362567,1.709251648,0.266018053,1.932867299
17.58832617,-0.560570226,1.343886039,-0.012836977,1.456170818
17.59837717,-0.323221802,0.767103238,-0.340310144,0.89929456
17.60842917,0.012813004,-0.090466951,-0.889810567,0.8944894
17.61848117,0.328628138,-0.911610156,-1.542693125,1.821793514
17.62853317,0.725713137,-1.495678588,-2.142684109,2.711975145
17.63858517,1.037001357,-1.785511034,-2.53820147,3.271985356
17.64863617,1.176125329,-1.765266219,-2.91106321,3.601905694
17.65868817,1.242951402,-1.422091963,-3.130287019,3.655950022
17.66874017,1.375384989,-0.811142128,-2.972414535,3.374149313
17.67879217,1.303749581,-0.083533323,-2.446946315,2.773857792
17.68884317,1.338449882,0.452593787,-1.748494066,2.248003719
17.69889517,1.307381287,0.89350016,-0.914017016,1.828391498
17.70894717,1.141268907,1.171568593,-0.054938246,1.636485838
17.71899917,1.065935719,1.372551429,0.710420183,1.877448593
17.72905117,0.995030043,1.4280532,1.205108953,2.117004562
17.73910217,0.863754789,1.510665001,1.524267379,2.313346521
17.74915417,0.701117409,1.541503801,1.588254629,2.321713238
17.75920617,0.538771221,1.572701036,1.333637624,2.131256035
17.76925817,0.387972114,1.651396372,0.845419675,1.895353995
17.77930917,0.247817863,1.577958267,0.240281972,1.615271312
17.78936117,0.131340743,1.543001858,-0.255501032,1.569517729
17.79941317,0.005494629,1.575727555,-0.585899194,1.681138121
17.80946517,-0.02157681,1.618107004,-0.723538046,1.77263734
17.81951717,0.02593591,1.611268685,-0.749734669,1.777346765
17.82956817,0.169114925,1.674592862,-0.792508294,1.860357628
17.83962017,0.371507524,1.71868613,-0.8383118,1.947990382
17.84967217,0.479111495,1.789672498,-0.782795922,2.011279426
17.85972417,0.60276081,1.875009686,-0.705589287,2.092089424
17.86977517,0.70456025,1.954828858,-0.627816714,2.170694551
17.87982717,0.909779393,2.048096625,-0.507531265,2.297822081
17.88987917,1.090737269,2.136090204,-0.422516295,2.435386862
17.89993117,1.330676009,2.214379159,-0.336154089,2.605220389
17.90998317,1.597405522,2.261886032,-0.219800345,2.777794992
17.92003354,1.778048233,2.237189732,-0.210838865,2.865471417
17.93008554,1.895017104,2.245961725,-0.304905363,2.954386768
17.94013754,2.008292289,2.402078875,-0.434401345,3.161000691
17.95018954,2.272763608,2.541798093,-0.56788977,3.45668783
17.96024054,2.660514112,2.409236451,-0.794217947,3.676076409
17.97029254,3.004278352,2.02488084,-0.995615934,3.757270542
17.98034454,3.313889591,1.578252967,-1.204105425,3.862980264
17.99039654,3.581123133,1.101724772,-1.400247935,3.999866829
18.00044854,3.75930709,0.681897612,-1.556292579,4.125460064
18.01049954,3.808188059,0.346963252,-1.639880866,4.160755826
18.02055154,3.770913228,0.436047921,-1.665710356,4.145421011
18.03060354,3.811894024,0.787877811,-1.483895863,4.165721357
18.04065554,3.894805788,1.037650983,-1.219814554,4.211196889
18.05070654,4.055491952,0.9087152,-0.959056803,4.265274696
18.06075854,4.249529464,0.366212286,-0.717093172,4.32513985
18.07081054,4.212763342,-0.337103092,-0.304239949,4.237165965
18.08086254,3.736306483,-0.991788931,0.223785843,3.872171422
18.09091454,3.028829057,-1.361375645,0.670831171,3.387796269
18.10096554,2.540619294,-1.495550534,0.981344123,3.107161741
18.11101754,2.051392701,-1.47183832,1.084065596,2.747675066
18.12106954,1.580863164,-1.08465441,1.045511395,2.183734785
18.13112154,1.293601738,-0.427531452,1.01353765,1.698071603
18.14117254,1.371197214,0.394343825,0.900087633,1.686963722
18.15122454,1.539112875,0.984269412,0.643153961,1.93682775
18.16127654,1.811625869,1.216580459,0.217903508,2.193065945
18.17132854,2.160944964,1.109416199,-0.289084003,2.446233227
18.18138054,2.38188727,0.722187851,-0.741721644,2.597131736
18.19143154,2.34751909,0.106946159,-1.002187035,2.554733296
18.20148354,2.181356424,-0.695546767,-1.129272759,2.552911694
18.21153554,2.146297104,-1.357831648,-1.063800316,2.753537571
18.22158754,1.983241063,-1.715704635,-0.883977385,2.767364003
18.23163854,1.636837975,-1.838652284,-0.659427931,2.548475225
18.24169054,1.453666928,-1.787949908,-0.284395705,2.321808202
18.25174254,1.382851299,-1.505296088,0.139776521,2.048836622
18.26179454,1.318694479,-1.063779851,0.677940143,1.824879596
18.27184654,1.135536296,-0.673149008,1.239772271,1.810968677
18.28189754,0.865620051,-0.408002921,1.662845221,1.918545982
18.29194954,0.589067216,-0.346323566,1.932942145,2.050172074
18.30200154,0.375164958,-0.377710251,2.109710345,2.175842714
18.31205354,0.018985325,-0.472578986,2.205058697,2.255210677
18.32210454,-0.491401758,-0.59170548,2.203170047,2.33357008
18.33215654,-0.890581815,-0.773038162,2.050071084,2.365061398
18.34220854,-1.110185693,-0.88741087,1.835777793,2.321656828
18.35226054,-1.34703301,-0.89693306,1.621692517,2.291042004
18.36231254,-1.58477846,-0.94445689,1.395345629,2.313117163
18.37236354,-1.819764023,-1.080220467,1.208039578,2.436755421
18.38241554,-1.991604921,-1.220607145,1.054695105,2.562958003
18.39246754,-2.229143963,-1.408345159,1.010267887,2.82367847
18.40251954,-2.564765371,-1.676285046,0.956409184,3.209777483
18.41257054,-2.801329098,-1.858115911,1.019953215,3.512882579
18.42262254,-3.07156811,-2.013328496,1.080055575,3.828125172
18.43267454,-3.363262895,-2.178608817,1.119120823,4.160565478
18.44272654,-3.650888602,-2.326976945,1.217413761,4.497322042
18.45277854,-3.873930058,-2.506415714,1.293654363,4.791971978
18.46282954,-4.047119908,-2.665042196,1.380279694,5.03853168
18.47288154,-4.23530962,-2.773836952,1.465473626,5.270638668
18.48293354,-4.408674302,-2.823032501,1.571312907,5.465797824
18.49298554,-4.51543452,-2.86097713,1.641135824,5.591749801
18.50303654,-4.632660668,-2.867600271,1.687746173,5.703785
18.51308854,-4.695722889,-2.892196876,1.716659485,5.775944599
18.52314054,-4.617304126,-2.837365781,1.72358712,5.686905532
18.53319254,-4.460461922,-2.813650936,1.70049398,5.541121901
18.54324454,-4.24950783,-2.853641798,1.623405751,5.370012527
18.55329554,-3.970574593,-2.967158765,1.449135336,5.164250861
18.56334754,-3.725693786,-3.24322979,1.233054843,5.091145049
18.57339954,-3.469105684,-3.606323171,0.948196404,5.093067591
18.58345154,-3.227872955,-3.884593626,0.676860966,5.095819092
18.59350254,-3.116248439,-4.082857798,0.50844471,5.161322326
18.60355454,-3.0536768,-4.189023354,0.401618419,5.199438047
18.61360654,-3.148315154,-4.101836983,0.460937252,5.191282895
18.62365854,-3.289783859,-3.818456062,0.643915122,5.081132868
18.63371054,-3.152595901,-3.610356873,0.630948483,4.834421749
18.64376154,-2.625364745,-3.693746939,0.372779878,4.547006854
18.65381354,-1.973030071,-3.95944091,0.124033697,4.425540005
18.66386554,-1.439623085,-4.292995911,-0.14342416,4.530220636
18.67391754,-1.158609994,-4.677985361,-0.421861407,4.837756835
18.68396854,-1.223767272,-4.784876848,-0.485351644,4.962682642
18.69402054,-1.024894697,-4.440896261,-0.466803252,4.581470726
18.70407254,-0.701355391,-3.528492638,-0.591186174,3.645773
18.71412454,-0.79031493,-2.325622729,-0.589465996,2.525982765
18.72417654,-0.831136681,-1.078891395,-0.393707209,1.417674219
18.73422754,-0.578990709,-0.004976565,-0.223885356,0.620789546
18.74427954,-0.094216186,0.621142702,-0.03912255,0.629464471
18.75433154,0.500699415,0.878528949,0.176133192,1.026418979
18.76438354,0.916984332,0.89007603,0.433093762,1.3493205
18.77443454,1.128161788,0.489261677,0.650504934,1.391144377
18.78448654,0.9677674,-0.129927471,0.891318125,1.322082784
18.79453854,0.68647949,-0.939800168,0.820301206,1.423858319
18.80459054,0.552878214,-1.823155993,0.415859824,1.950002946
18.81464254,0.420582621,-2.502693669,0.05964043,2.538488196
18.82469354,0.314445131,-2.873066248,-0.155627007,2.894409296
18.83474554,0.386503294,-2.83355135,-0.410873173,2.889154688
18.84479754,0.766089916,-2.288597867,-0.647050691,2.498649346
18.85484954,1.207303267,-1.494229648,-0.648333424,2.027471245
18.86490054,1.486562194,-0.704224035,-0.533052059,1.729145207
18.87495254,1.852845231,0.033191135,-0.302630832,1.877690742
18.88500454,2.000727162,0.700595253,0.039253601,2.120208417
18.89505654,2.09949482,1.137024997,0.435341651,2.426978924
18.90510854,2.00126569,1.404886531,0.778686645,2.566149532
18.91515954,1.890212447,1.569585639,0.863903966,2.604387113
18.92521183,1.871679697,1.550828356,0.830824002,2.568758844
18.93526383,1.813926163,1.514299046,0.774606385,2.486653329
18.94531583,1.654928091,1.475848925,0.575900529,2.29097762
18.95536783,1.578165259,1.46602151,0.18819037,2.162230392
18.96541883,1.516862465,1.574475081,-0.159876909,2.192123205
18.97547083,1.574173365,1.718866224,-0.430813494,2.370258033
18.98552283,1.722462262,1.830926358,-0.719187645,2.61465073
18.99557483,1.808604612,1.983376134,-0.881625634,2.825260217
19.00562583,1.893257677,2.244202298,-0.94066614,3.083134991
19.01567783,2.057721142,2.545881788,-0.93932245,3.405592025
19.02572983,2.31966354,2.754030386,-0.979994513,3.731743768
19.03578183,2.612653483,2.892757332,-0.983964772,4.020222615
19.04583383,2.873734585,3.072370348,-0.988713881,4.321500337
19.05588483,3.124443312,3.150155858,-1.182621585,4.591755846
19.06593683,3.209069479,3.138540949,-1.463838744,4.721375867
19.07598883,3.206602539,3.024965801,-1.773213755,4.751526593
19.08604083,3.269773518,2.824077106,-2.009871622,4.765124793
19.09609183,3.401984326,2.699191689,-1.978074464,4.771992426
19.10614383,3.357230907,2.618766162,-1.830116519,4.634464591
19.11619583,3.256103312,2.412825472,-1.658754508,4.378972717
19.12624783,3.234393185,2.258895181,-1.405729115,4.188076057
19.13629983,3.217652607,2.211767208,-1.011002297,4.033277591
19.14635083,3.108666939,2.229168522,-0.626618035,3.876293668
19.15640283,3.017950312,2.197232784,-0.33041797,3.747670213
19.16645483,2.907137389,2.206644462,-0.092138067,3.650920022
19.17650683,2.806496283,2.275213591,0.078446245,3.613747651
19.18655783,2.676509171,2.407603324,0.289214999,3.611634038
19.19660983,2.592692842,2.517269608,0.398386005,3.635576139
19.20666183,2.570231348,2.499256675,0.460780474,3.614511275
19.21671383,2.565617895,2.396898826,0.465674593,3.541803495
19.22676583,2.495441367,2.028068157,0.294070508,3.229050252
19.23681683,2.584558781,1.402361119,0.152812303,2.944471497
19.24686883,2.7210211,0.637337151,0.168430216,2.799736274
19.25692083,2.632911746,-0.352287142,0.269970661,2.670058923
19.26697283,2.24365266,-1.283714681,0.436922592,2.621602943
19.27702383,1.833059422,-1.845484756,0.691088192,2.69137952
19.28707583,1.438389323,-2.179026893,0.951294113,2.778863533
19.29712783,1.206944833,-2.273112686,1.153460351,2.820324076
19.30717983,1.253999716,-2.135996064,1.194513579,2.749883118
19.31723183,1.687618704,-1.80220425,1.170758608,2.73252132
19.32728283,2.297980894,-1.389652196,1.312874161,2.989228659
19.33733483,2.607848241,-1.008731824,1.557311164,3.2005672
19.34738683,2.795013521,-0.869963948,1.826535976,3.450387156
19.35743883,3.033209791,-0.785024954,2.138236425,3.793241466
19.36749083,3.141991975,-0.655990938,2.637777214,4.154552481
19.37754183,3.232281756,-0.634748588,3.099634745,4.523083757
19.38759383,3.246284668,-0.684706614,3.433454626,4.774494524
19.39764583,3.116809772,-0.602484822,3.687676359,4.865845049
19.40769783,2.974971523,-0.498109683,3.871704608,4.908020517
19.41774883,2.800944936,-0.39283115,4.053017118,4.942322997
19.42780083,2.572629876,-0.28290525,4.358150851,5.068721604
19.43785283,2.332358429,-0.204540281,4.672851505,5.22659294
19.44790483,2.058775395,-0.225443493,4.974017025,5.387970514
19.45795683,1.768502069,-0.337118295,5.219579033,5.52134527
19.46800783,1.427559695,-0.593308786,5.486954663,5.700580099
19.47805983,1.049534279,-1.01882938,5.697406479,5.882174436
19.48811183,0.540320733,-1.3660809,5.959146563,6.137552548
19.49816383,0.11486095,-1.559027907,6.163133698,6.358299932
19.50821483,-0.3223225,-1.730575274,6.373797768,6.612418662
19.51826683,-0.736541596,-1.893411459,6.493931737,6.804311124
19.52831883,-1.148969105,-1.999109822,6.519247842,6.914995481
19.53837083,-1.347258713,-2.132626314,6.493349354,6.966117058
19.54842283,-1.40426965,-2.336401779,6.183964988,6.758118784
19.55847383,-1.261568937,-2.574121501,5.752304817,6.427026404
19.56852583,-1.265274902,-2.616658825,5.35327328,6.091416813
19.57857783,-1.193455891,-2.686514926,5.050533689,5.84376505
19.58862983,-0.967763307,-2.71073117,5.081236249,5.839828004
19.59868083,-0.779223347,-2.659008454,5.457753668,6.120832466
19.60873283,-0.785648267,-2.696835262,5.988620038,6.614660504
19.61878483,-0.881130375,-2.820387513,6.409028996,7.057381181
19.62883683,-0.74823135,-2.976648504,6.726043394,7.393236518
19.63888883,-0.740427071,-3.026374395,6.935062643,7.602780287
19.64893983,-0.772877948,-2.869405307,6.972025232,7.578915686
19.65899183,-0.673140821,-2.650604251,7.150476991,7.655595513
19.66904383,-0.423874603,-2.458923751,7.29363905,7.708641014
19.67909583,-0.293620858,-2.3533359,7.464526266,7.832212679
19.68914783,-0.225271584,-2.439881124,7.546874943,7.934676338
19.69919883,-0.448686093,-2.697498921,7.522785584,8.004381461
19.70925083,-0.742335602,-2.853401477,7.372174757,7.939894381
19.71930283,-0.919184055,-2.853278101,7.258919452,7.853534673
19.72935483,-1.161407887,-2.818899397,7.069719926,7.69909098
19.73940583,-1.419235014,-2.692908272,6.786790118,7.438178748
