"Time (s)","Linear Acceleration x (m/s^2)","Linear Acceleration y (m/s^2)","Linear Acceleration z (m/s^2)","Absolute acceleration (m/s^2)"
7.688166574E-3,9.786970156E-1,-1.387089946E0,-1.634060547E0,2.356272531E0
1.774316665E-2,1.290452136E0,-1.349121051E0,-1.348525804E0,2.303023267E0
2.779916662E-2,1.539828574E0,-1.392139601E0,-1.281072325E0,2.439317734E0
3.785516659E-2,1.602223335E0,-1.471525494E0,-1.629527786E0,2.718063226E0
4.791016667E-2,1.530896367E0,-1.453081622E0,-2.061316595E0,2.950273884E0
5.796616664E-2,1.483810202E0,-1.340571252E0,-2.604787223E0,3.283860605E0
6.802216661E-2,1.432336285E0,-1.155992780E0,-3.093169479E0,3.599389388E0
7.807716657E-2,1.393186837E0,-9.306533682E-1,-3.366009332E0,3.759934052E0
8.813316666E-2,1.376376970E0,-7.992488909E-1,-3.353380516E0,3.711923118E0
9.818916663E-2,1.357105424E0,-7.333840996E-1,-3.037594618E0,3.406841415E0
1.082441666E-1,1.311338975E0,-6.598629642E-1,-2.447624007E0,2.854100965E0
1.183001667E-1,1.208667130E0,-6.367588609E-1,-1.677805322E0,2.163647101E0
1.283561666E-1,9.933165166E-1,-6.952777952E-1,-8.831780702E-1,1.500030806E0
1.384121666E-1,8.656358385E-1,-8.084179097E-1,-5.610052586E-2,1.185753849E0
1.484671666E-1,1.085484130E0,-7.701113382E-1,5.276737905E-1,1.431707687E0
1.585231667E-1,1.555258791E0,-4.454049280E-1,9.570324969E-1,1.879661315E0
1.685791666E-1,2.165757515E0,-8.321494192E-2,1.222231209E0,2.488228178E0
1.786341666E-1,2.768099957E0,-5.804355562E-2,8.741774511E-1,2.903434628E0
1.886901666E-1,3.210110283E0,-4.586020938E-1,6.614955068E-2,3.243377819E0
1.987461667E-1,3.573707110E0,-7.432211629E-1,-2.352270538E-1,3.657744109E0
2.088011666E-1,3.635524166E0,-8.989664295E-1,-3.088148475E-2,3.745147563E0
2.188571666E-1,3.404683109E0,-1.128754988E0,2.938144004E-1,3.598927867E0
2.289131667E-1,2.785639557E0,-1.389920583E0,5.022243690E-1,3.153394407E0
2.389681666E-1,2.202770390E0,-1.495944928E0,5.774973303E-1,2.724619567E0
2.490241666E-1,1.482722912E0,-1.502546289E0,1.016447809E0,2.342920983E0
2.590801666E-1,1.072712642E0,-1.892155769E0,1.354075397E0,2.562125299E0
2.691361667E-1,1.887796962E-1,-1.820677797E0,1.756287235E0,2.536740086E0
2.791916666E-1,2.331173784E-1,-1.008526806E0,1.913860341E0,2.175851887E0
2.892476666E-1,4.617984742E-1,-7.172501698E-1,2.251701352E0,2.407875540E0
2.993036666E-1,7.802881247E-1,-3.201248243E-1,2.296606799E0,2.446575617E0
3.093586667E-1,1.150422430E0,1.316018209E-1,2.262774224E0,2.541837524E0
3.194146666E-1,1.750859557E0,3.303173983E-1,1.733693009E0,2.486022973E0
3.294706666E-1,1.992758576E0,2.795497524E-1,1.431309514E0,2.469388939E0
3.395256667E-1,2.247739863E0,1.406299949E-1,1.084263232E0,2.499547568E0
3.495816666E-1,2.414425855E0,6.771587357E-2,9.180058408E-1,2.583945118E0
3.596376666E-1,2.627211003E0,2.286658931E-1,6.470616549E-1,2.715366371E0
3.696926666E-1,2.621189833E0,4.000939769E-1,4.783957958E-1,2.694359639E0
3.797486667E-1,2.342000780E0,4.878536671E-1,4.998252565E-1,2.443930061E0
3.898046666E-1,2.004045457E0,3.926931560E-1,6.715573955E-1,2.149743111E0
3.998596666E-1,1.547122099E0,2.454848242E-1,1.013380360E0,1.865687364E0
4.099156667E-1,8.807602465E-1,2.416022730E-1,1.271644274E0,1.565627488E0
4.199716666E-1,2.668125433E-1,2.958695506E-1,1.376288969E0,1.432794141E0
4.300276666E-1,4.443620771E-2,3.034124587E-1,1.109982795E0,1.151562200E0
4.400826666E-1,1.526500431E-1,2.597537845E-1,7.828252316E-1,8.388023649E-1
4.501386667E-1,3.063870835E-1,2.677785033E-1,6.048558676E-1,7.289917643E-1
4.601946666E-1,3.697366950E-1,3.864698182E-1,4.910865927E-1,7.261061806E-1
4.702496666E-1,3.393767819E-1,3.555487186E-1,5.443757772E-1,7.334415302E-1
4.803056666E-1,4.150283504E-1,-4.600910872E-2,1.658960330E-1,4.493182207E-1
4.903616667E-1,7.991214216E-2,2.056392655E-1,-1.809479356E-1,2.853342134E-1
5.004166666E-1,-7.135082442E-1,1.119247123E0,1.731945276E-3,1.327332338E0
5.104726666E-1,-3.727526888E-1,1.809319434E0,6.644202840E-1,1.963169808E0
5.205286667E-1,8.259566331E-1,1.981814927E0,1.534208230E0,2.638861433E0
5.305836666E-1,1.746670027E0,1.925835878E0,2.208059489E0,3.411044813E0
5.406396666E-1,2.031308684E0,1.851322470E0,2.565230225E0,3.759523369E0
5.506956666E-1,2.025537483E0,1.763608826E0,2.377780185E0,3.587054055E0
5.607516667E-1,1.951418177E0,1.609109163E0,1.622161463E0,3.004775035E0
5.708066666E-1,1.820771206E0,1.417199306E0,5.720734531E-1,2.377168419E0
5.808626666E-1,1.638039870E0,1.088019629E0,-4.163024586E-1,2.010042056E0
5.909186666E-1,1.228049188E0,7.766912100E-1,-1.030103981E0,1.781142402E0
6.009736666E-1,6.346956709E-1,5.749814196E-1,-1.140650856E0,1.426368326E0
6.110296666E-1,3.028632590E-1,4.723994762E-1,-1.170609650E0,1.298158069E0
6.210856666E-1,3.269309834E-1,4.400640813E-1,-1.350635480E0,1.457654439E0
6.311406667E-1,4.732914689E-1,6.560130112E-1,-1.446649100E0,1.657453318E0
6.411966666E-1,7.121914512E-1,9.654805541E-1,-1.268173952E0,1.745747558E0
6.512526666E-1,8.039325106E-1,1.188144719E0,-6.322372091E-1,1.567711467E0
6.613076666E-1,8.301309603E-1,1.117860894E0,2.261843348E-1,1.410634518E0
6.713636667E-1,8.918193778E-1,9.392994998E-1,9.784245354E-1,1.623249803E0
6.814196666E-1,8.992143515E-1,7.536594661E-1,1.448324327E0,1.863929290E0
6.914746666E-1,8.242776051E-1,5.872171569E-1,1.372760759E0,1.705499827E0
7.015306667E-1,7.905201674E-1,4.061559315E-1,1.042286655E0,1.369761383E0
7.115866666E-1,6.730238771E-1,1.829821819E-1,8.598166895E-1,1.107126171E0
7.216426666E-1,4.934476984E-1,3.534641862E-2,5.648258293E-1,7.508450025E-1
7.316976666E-1,1.390011799E-1,-2.089552215E-1,4.748032665E-1,5.370491174E-1
7.417536667E-1,-3.011286825E-1,-5.088662213E-1,7.515899903E-1,9.563005950E-1
7.518096666E-1,-6.826288059E-1,-7.902741458E-1,1.205045072E0,1.594568574E0
7.618646666E-1,-7.506307545E-1,-9.852285017E-1,1.644316564E0,2.058615722E0
7.719206667E-1,-5.786083013E-1,-9.960355449E-1,1.836405199E0,2.167777301E0
7.819766667E-1,-3.445495212E-1,-9.716604763E-1,1.764766282E0,2.043829368E0
7.920316666E-1,-2.089312479E-1,-8.640948779E-1,1.582766433E0,1.815340686E0
8.020876666E-1,-1.221647072E-1,-7.080808586E-1,9.593000472E-1,1.198565517E0
8.121436667E-1,-5.637183666E-2,-5.117049714E-1,1.053621483E-1,5.254721154E-1
8.221986666E-1,7.998113930E-2,-5.770039715E-1,-4.493386424E-1,7.356872850E-1
8.322546666E-1,5.639814913E-2,-5.257315647E-1,-1.471409719E0,1.563528379E0
8.423106666E-1,-2.947429383E-1,-1.262031744E0,-2.637894158E0,2.939061604E0
8.523666667E-1,-5.924603552E-1,-1.880354626E0,-3.630242084E0,4.131028973E0
8.624216666E-1,-1.117554062E0,-1.566671679E0,-3.634815191E0,4.112817611E0
8.724776666E-1,-1.086232282E0,-4.695434402E-1,-2.384108042E0,2.661642870E0
8.825336667E-1,-2.811671653E-1,8.483014023E-1,-7.403393626E-2,8.967448175E-1
8.925886666E-1,8.865007505E-1,6.741233730E-1,1.620321345E0,1.966155427E0
9.026446666E-1,1.830785733E0,-4.724651843E-1,2.200326546E0,2.901109556E0
9.127006666E-1,2.075050243E0,-1.509218839E0,2.671053134E0,3.703795331E0
9.227556667E-1,1.232231117E0,-1.727095888E0,3.006419018E0,3.679647951E0
9.328116666E-1,1.604291788E-1,-1.031206693E0,3.124351510E0,3.294039636E0
9.428676666E-1,-3.212103599E-1,-4.617132510E-1,2.649333651E0,2.708380331E0
9.529226667E-1,-2.884954807E-1,7.923360019E-2,2.218596756E0,2.238677996E0
9.629786666E-1,-9.820486397E-2,5.112006125E-1,1.943219211E0,2.011733373E0
9.730346666E-1,-1.116373801E-1,4.694243398E-1,1.645975419E0,1.715242605E0
9.830906666E-1,-1.217437077E-1,1.529639472E-1,1.148693701E0,1.165211019E0
9.931456667E-1,-7.849273056E-2,-2.160193523E-2,3.079664165E-1,3.185452339E-1
1.003201667E0,-1.847670445E-1,7.945412245E-2,-5.021045011E-1,5.408888503E-1
1.013257667E0,-2.905227104E-1,4.847233602E-1,-1.554955906E0,1.654463070E0
1.023312667E0,-4.919695222E-1,9.695016112E-1,-2.032568175E0,2.305059819E0
1.033368667E0,-5.181992546E-1,1.287332646E0,-1.805633642E0,2.277294153E0
1.043424667E0,-6.775642401E-1,1.156850859E0,-1.160806208E0,1.773377643E0
1.053479667E0,-5.102245295E-1,6.997361510E-1,5.551814318E-2,8.677799351E-1
1.063535667E0,-1.890898910E-1,1.877432773E-1,1.784613487E0,1.804396803E0
1.073591667E0,-1.853508890E-1,-2.679682089E-1,3.074881142E0,3.092095722E0
1.083646667E0,-1.212955186E-1,-7.382760995E-1,3.324665424E0,3.407809323E0
1.093702667E0,-1.229763007E-1,-9.440066546E-1,2.771563262E0,2.930500751E0
1.103758667E0,-2.511852747E-1,-1.128076565E0,1.828575193E0,2.163177758E0
1.113813667E0,-3.683003265E-1,-1.782252673E0,9.759932631E-1,2.065098683E0
1.123869667E0,-2.275188155E-1,-2.671863558E0,1.772443092E-1,2.687384458E0
1.133925667E0,-1.248656823E-1,-2.851363138E0,-5.404686677E-1,2.904818336E0
1.143981667E0,-2.742882085E-1,-2.157399797E0,-1.216127885E0,2.491701214E0
1.154036667E0,2.250058284E-1,-1.297900173E0,-1.370473328E0,1.900886536E0
1.164092667E0,-1.084772524E-1,-1.485658506E0,-1.136863614E0,1.873874966E0
1.174148667E0,-3.588927412E-1,-1.217611981E0,-6.632005548E-1,1.432207357E0
1.184203667E0,3.366680592E-2,-1.140242062E0,-1.239453598E0,1.684497146E0
1.194259667E0,-4.122503382E-1,-7.957783491E-1,-2.039890643E0,2.228086030E0
1.204315667E0,-4.580138639E-1,-4.454271474E-1,-2.287033153E0,2.374595267E0
1.214370667E0,3.261825398E-1,-1.240786470E-2,-1.928601757E0,1.956030097E0
1.224426667E0,5.942586663E-1,2.737254871E-1,-1.333411921E0,1.485279892E0
1.234482667E0,7.144595861E-1,1.153345015E-1,-6.893569046E-1,9.994836114E-1
1.244537667E0,7.770674783E-1,-4.297732741E-2,-3.298279864E-1,8.452617447E-1
1.254593667E0,5.683800593E-1,-9.101410434E-3,-2.284267420E-1,6.126316217E-1
1.264649667E0,4.130180776E-1,1.823384400E-1,-3.094609648E-1,5.473548464E-1
1.274704292E0,4.411873314E-1,4.413523690E-1,-4.295148271E-1,7.575758455E-1
1.284760292E0,4.864737242E-1,6.777134172E-1,-1.825003713E-1,8.539663610E-1
1.294816292E0,4.839443649E-1,6.593636850E-1,3.109379715E-1,8.750114511E-1
1.304872292E0,6.620933846E-1,4.514952417E-1,6.724093348E-1,1.046111809E0
1.314927292E0,8.380998382E-1,2.934175938E-1,6.416599971E-1,1.095551357E0
1.324983292E0,9.529892935E-1,3.127970206E-1,2.645005542E-1,1.037299915E0
1.335039292E0,1.088076055E0,4.425100446E-1,-2.155406481E-1,1.194228794E0
1.345094292E0,1.091101112E0,4.907726703E-1,-4.251919806E-1,1.269703773E0
1.355150292E0,9.924261318E-1,5.261551224E-1,-1.871050537E-1,1.138752449E0
1.365206292E0,9.999402425E-1,5.032160568E-1,3.763197827E-1,1.180984110E0
1.375261292E0,1.054249035E0,1.874716741E-1,1.180715393E0,1.593949653E0
1.385317292E0,1.071318812E0,-4.311975096E-1,2.460312465E0,2.717865470E0
1.395373292E0,5.666941608E-1,-9.508664618E-1,2.124899803E0,2.395931650E0
1.405428292E0,3.433635597E-1,-7.353486179E-1,1.584158655E0,1.779942350E0
1.415484292E0,4.678320698E-1,-4.096461345E-1,6.895580488E-1,9.285295385E-1
1.425540292E0,3.279837745E-1,-1.929660103E-1,4.538181943E-1,5.922501084E-1
1.435595292E0,4.943490466E-1,-4.014976010E-2,2.497275639E-1,5.552988739E-1
1.445651292E0,6.656629635E-1,-5.646027580E-2,1.884697938E-1,6.941295318E-1
1.455707292E0,7.062215902E-1,-8.300005674E-2,3.008076704E-1,7.720901492E-1
1.465763292E0,5.822386913E-1,1.007299840E-1,7.095011473E-2,5.951322056E-1
1.475818292E0,3.112165913E-1,3.116862689E-1,-2.533510834E-1,5.081248551E-1
1.485874292E0,1.172486606E-1,3.173264931E-1,-6.732758921E-1,7.534877428E-1
1.495930292E0,-5.766575240E-2,8.745257990E-1,-6.104159850E-1,1.068048869E0
1.505985292E0,-1.047214396E-1,1.219793066E0,5.689340830E-3,1.224293295E0
1.516041292E0,7.399820977E-1,-2.814881775E-1,7.085106289E-1,1.062448310E0
1.526097292E0,7.167431431E-1,-9.175314854E-1,1.022045349E0,1.549245447E0
1.536152292E0,3.279110498E-1,-1.230878656E0,1.471003338E0,1.945877371E0
1.546208292E0,-1.197437406E-1,-1.237073342E0,2.117187910E0,2.455030278E0
1.556264292E0,-3.209184377E-1,-1.234472647E0,1.779717613E0,2.189590405E0
1.566319292E0,-5.679416643E-1,-1.179745486E0,7.490955681E-1,1.508476488E0
1.576375292E0,-8.309416037E-1,-1.102624366E0,1.997408867E-3,1.380669559E0
1.586431292E0,-8.578070746E-1,-1.029308614E0,-3.590348285E-1,1.387160844E0
1.596486292E0,-6.747374037E-1,-9.181683934E-1,-5.668776172E-1,1.272656275E0
1.606542292E0,-3.316003871E-1,-7.369121633E-1,-4.671399057E-1,9.333906174E-1
1.616598292E0,1.590327175E-1,-4.447086708E-1,-2.557893723E-1,5.371083784E-1
1.626653292E0,6.427226555E-1,-1.396942212E-1,-2.347832501E-2,6.581474903E-1
1.636709292E0,1.125777732E0,-1.245705441E-2,1.293918657E-1,1.133257665E0
1.646765292E0,1.434097759E0,-3.556007588E-1,3.735534650E-1,1.524017872E0
1.656821292E0,1.451420574E0,-4.124703397E-1,1.829394972E-1,1.519940894E0
1.666876292E0,1.395171967E0,-8.826459736E-2,-3.778277797E-1,1.448119224E0
1.676932292E0,1.039403174E0,-1.333725040E-1,-7.844338006E-1,1.309000982E0
1.686988292E0,7.155373742E-1,-3.492794801E-1,-6.772900057E-1,1.045328485E0
1.697043292E0,3.404954273E-1,-4.586383465E-1,-5.714694357E-1,8.079997431E-1
1.707099292E0,-2.135934887E-1,-2.758204713E-1,-5.116582668E-1,6.192683528E-1
1.717155292E0,-5.951933072E-1,-1.624112387E-1,-4.753207451E-1,7.788210925E-1
1.727210292E0,-8.169855425E-1,-2.308062664E-1,-2.654396170E-1,8.894914837E-1
1.737266292E0,-9.236198987E-1,-4.160752943E-1,6.068415821E-2,1.014827539E0
1.747322292E0,-1.133640410E0,-5.384369065E-1,-4.362315238E-2,1.255769828E0
1.757377292E0,-1.214339368E0,-4.489550650E-1,-4.542058647E-1,1.372036340E0
1.767433292E0,-1.211202775E0,-9.710178673E-2,-1.017176957E0,1.584641878E0
1.777489292E0,-1.314320762E0,3.335895002E-1,-1.570341684E0,2.074775657E0
1.787544292E0,-1.357390329E0,7.269138631E-1,-1.960745071E0,2.493077115E0
1.797600292E0,-1.216260909E0,9.647986226E-1,-2.205100213E0,2.696774727E0
1.807656292E0,-1.027966020E0,1.138734577E0,-2.263225629E0,2.734158157E0
1.817711292E0,-7.059483790E-1,1.311163412E0,-1.954730040E0,2.457332321E0
1.827767292E0,-3.526117352E-1,1.509243397E0,-1.593330013E0,2.222802554E0
1.837823292E0,-8.632001443E-2,1.649443987E0,-1.070732775E0,1.968396628E0
1.847879292E0,6.084667426E-2,1.653643165E0,-5.836708206E-1,1.754682211E0
1.857934292E0,-3.397462528E-2,1.585381161E0,-2.754933196E-1,1.609498143E0
1.867990292E0,-3.649267023E-1,1.415173830E0,-5.460597754E-2,1.462487703E0
1.878046292E0,-8.049140389E-1,1.204758559E0,9.663634837E-2,1.452125469E0
1.888101292E0,-1.064799824E0,1.054396824E0,1.036921835E-1,1.502099663E0
1.898157292E0,-1.204534026E0,1.011880403E0,4.203914165E-2,1.573712635E0
1.908213292E0,-1.172590833E0,9.948575503E-1,1.011907446E-1,1.541087400E0
1.918268292E0,-1.169006782E0,9.440614723E-1,1.867840415E-1,1.514172116E0
1.928324292E0,-1.141362316E0,1.020789513E0,5.084428829E-1,1.613453852E0
1.938380292E0,-1.057462446E0,1.052485807E0,8.438543755E-1,1.714072171E0
1.948435292E0,-9.045686468E-1,1.090439938E0,1.084458529E0,1.784195616E0
1.958491292E0,-7.050359941E-1,1.104093040E0,1.321631536E0,1.860861927E0
1.968547292E0,-5.343941416E-1,1.104064828E0,1.553338566E0,1.979241507E0
1.978602292E0,-3.645429788E-1,1.107778540E0,1.652535995E0,2.022607251E0
1.988658292E0,-2.636093654E-1,1.077622841E0,1.618007017E0,1.961812323E0
1.998714292E0,-2.714172621E-1,1.061200936E0,1.612607113E0,1.949440037E0
2.008769292E0,-1.468346947E-1,1.071210054E0,1.637448424E0,1.962215266E0
2.018825292E0,3.481432199E-3,1.045526159E0,1.776600462E0,2.061418510E0
2.028881292E0,-1.370044289E-1,9.413625437E-1,1.991441199E0,2.206982487E0
2.038937292E0,-5.533316286E-1,7.124766491E-1,2.033051739E0,2.224207329E0
2.048992292E0,-1.053922468E0,3.372217906E-1,1.798698844E0,2.111821166E0
2.059048292E0,-1.638606758E0,1.044113910E-1,1.461401625E0,2.198096575E0
2.069104292E0,-1.958348589E0,-4.446982920E-2,1.006516898E0,2.202313109E0
2.079159292E0,-1.811495183E0,-2.176691808E-1,5.058519816E-1,1.893351763E0
2.089215292E0,-1.532707104E0,-2.853919248E-1,3.135610324E-1,1.590270461E0
2.099271292E0,-1.046020249E0,-2.930317506E-1,5.616572231E-1,1.222900161E0
2.109326292E0,-4.223045890E-1,-3.081111351E-1,1.198159391E0,1.307233554E0
2.119382292E0,-7.034105413E-2,-4.429876891E-1,2.084135939E0,2.131855663E0
2.129438292E0,-2.690819938E-1,-6.474047403E-1,2.887512379E0,2.971408043E0
2.139493292E0,-8.763099307E-1,-9.046165940E-1,3.073716377E0,3.321743916E0
2.149549292E0,-1.715877420E0,-1.200131949E0,2.380285133E0,3.170222284E0
2.159605292E0,-2.548316861E0,-1.327708109E0,1.183833128E0,3.107762623E0
2.169660292E0,-3.014078286E0,-1.221916336E0,-2.113593042E-1,3.259205455E0
2.179716292E0,-3.117548860E0,-9.625242019E-1,-1.437029260E0,3.565195202E0
2.189772292E0,-2.935778513E0,-6.348605624E-1,-2.263296381E0,3.760898020E0
2.199827292E0,-2.441513520E0,-2.461984769E-1,-2.743099601E0,3.680515913E0
2.209883292E0,-1.778913036E0,1.255050753E-1,-2.814499952E0,3.331920331E0
2.219939292E0,-1.124594548E0,2.365021853E-1,-2.450958089E0,2.706998658E0
2.229995292E0,-6.463327264E-1,1.394160399E-1,-1.741044129E0,1.862368783E0
2.240050292E0,-4.645487121E-1,-3.164366931E-2,-9.315824908E-1,1.041466641E0
2.250106292E0,-3.697048277E-1,-3.023251690E-1,-2.231297493E-1,5.271328603E-1
2.260162292E0,-3.977026849E-1,-4.802493632E-1,3.237071210E-1,7.025618668E-1
2.270217292E0,-5.303180476E-1,-5.495205961E-1,6.508331090E-1,1.003391176E0
2.280273167E0,-6.888036118E-1,-5.463752326E-1,6.730630535E-1,1.107244410E0
2.290329167E0,-8.569489226E-1,-4.833514573E-1,3.713455564E-1,1.051611910E0
2.300384167E0,-9.654924678E-1,-3.762190644E-1,-1.083185005E-1,1.041849023E0
2.310440167E0,-9.564937491E-1,-1.936238220E-1,-6.652558511E-1,1.181074013E0
2.320496167E0,-8.524614769E-1,4.528814703E-2,-1.210424511E0,1.481171524E0
2.330551167E0,-8.530358928E-1,2.537713520E-1,-1.596387522E0,1.827709838E0
2.340607167E0,-8.627344501E-1,3.679320981E-1,-1.881363271E0,2.102192312E0
2.350663167E0,-8.203688145E-1,4.673467509E-1,-2.154767965E0,2.352539683E0
2.360718167E0,-8.206774744E-1,5.789057784E-1,-2.276597627E0,2.488280565E0
2.370774167E0,-8.885552428E-1,6.145439731E-1,-2.126130642E0,2.384874466E0
2.380830167E0,-8.617174000E-1,5.370081393E-1,-1.690563362E0,1.972039325E0
2.390885167E0,-8.643030388E-1,3.964323042E-1,-1.151271154E0,1.493185717E0
2.400941167E0,-9.630926243E-1,1.393125442E-1,-8.453945321E-1,1.289048992E0
2.410997167E0,-1.072444109E0,-7.290966287E-2,-6.604909551E-1,1.261626128E0
2.421052167E0,-1.080189330E0,-1.281190731E-1,-3.531572074E-1,1.143653575E0
2.431108167E0,-1.041423679E0,-1.839528197E-1,-1.569568098E-1,1.069129253E0
2.441164167E0,-9.891516910E-1,-2.439429134E-1,-1.310074514E-1,1.027176794E0
2.451220167E0,-9.783597775E-1,-2.084840821E-1,-2.151635027E-1,1.023205160E0
2.461275167E0,-1.016559199E0,-1.377704872E-1,-3.095059884E-1,1.071525673E0
2.471331167E0,-1.039958221E0,-5.055312619E-2,-3.651656342E-1,1.103365153E0
2.481387167E0,-9.939860228E-1,7.842577994E-3,-3.326095068E-1,1.048188344E0
2.491442167E0,-9.229305120E-1,3.500245616E-2,-2.508549070E-1,9.570549024E-1
2.501498167E0,-8.334644580E-1,1.261536777E-4,-6.127706587E-2,8.357140046E-1
2.511554167E0,-6.805442736E-1,-4.332991451E-2,3.145737702E-1,7.509824543E-1
2.521609167E0,-5.019646065E-1,-4.622501716E-2,7.032218224E-1,8.652318475E-1
2.531665167E0,-3.478536731E-1,-1.045292124E-1,1.016725552E0,1.079657067E0
2.541721167E0,-3.141799602E-1,-2.391058043E-2,1.318809670E0,1.355927619E0
2.551776167E0,-5.103779824E-1,2.645180959E-1,1.299862352E0,1.421301390E0
2.561832167E0,-6.708750254E-1,5.274558355E-1,7.957084018E-1,1.166805390E0
2.571888167E0,-5.688831391E-1,6.367322561E-1,2.976191837E-1,9.042307064E-1
2.581943167E0,-3.035837639E-1,6.838842031E-1,4.489901483E-2,7.495843025E-1
2.591999167E0,9.291033810E-2,6.845770982E-1,8.427007198E-2,6.959738352E-1
2.602055167E0,4.199313869E-1,5.333508521E-1,5.267078304E-1,8.592011637E-1
2.612110167E0,5.658243144E-1,1.648996675E-1,1.335767180E0,1.460007881E0
2.622166167E0,5.939202222E-1,-4.020028004E-1,2.386003125E0,2.491457082E0
2.632222167E0,3.468818294E-1,-9.048551604E-1,3.405343552E0,3.540544389E0
2.642277167E0,-2.597654790E-2,-1.275684408E0,4.189644620E0,4.379630982E0
2.652333167E0,-4.402620095E-1,-1.534535382E0,4.437508677E0,4.715942401E0
2.662389167E0,-6.842283118E-1,-1.560172645E0,4.091455836E0,4.431965470E0
2.672445167E0,-8.451645903E-1,-1.383590095E0,3.161059746E0,3.552593904E0
2.682500167E0,-7.836018880E-1,-1.030833860E0,1.938643765E0,2.331306503E0
2.692556167E0,-5.474549941E-1,-6.692179245E-1,8.336609244E-1,1.201062087E0
2.702612167E0,-2.310176432E-1,-3.757020244E-1,-3.774202287E-2,4.426574555E-1
2.712667167E0,1.326514326E-1,-1.466616172E-1,-6.929658061E-1,7.206300306E-1
2.722723167E0,3.568442057E-1,-4.283933312E-2,-1.002631423E0,1.065102233E0
2.732779167E0,4.903278068E-1,-6.130323216E-2,-1.017909029E0,1.131511482E0
2.742834167E0,5.462545607E-1,-1.643935910E-1,-8.005042881E-1,9.829681648E-1
2.752890167E0,5.286724583E-1,-3.541132271E-1,-4.694448781E-1,7.907396787E-1
2.762946167E0,4.725742348E-1,-5.071645354E-1,-1.197194016E-1,7.034735308E-1
2.773001167E0,3.976306180E-1,-5.883792910E-1,1.571550304E-1,7.273224883E-1
2.783057167E0,3.279945919E-1,-6.276852979E-1,2.641801268E-1,7.558838700E-1
2.793113167E0,2.095119495E-1,-5.857910210E-1,1.827313364E-1,6.484112264E-1
2.803168167E0,4.520782091E-2,-5.632434265E-1,-7.403919876E-2,5.698848196E-1
2.813224167E0,-2.108623274E-1,-5.493814324E-1,-4.523856264E-1,7.422503852E-1
2.823280167E0,-5.412895072E-1,-4.938403389E-1,-9.065903217E-1,1.165666600E0
2.833335167E0,-8.961110879E-1,-4.044412355E-1,-1.327487522E0,1.651911292E0
2.843391167E0,-1.160480372E0,-3.014033554E-1,-1.681075670E0,2.064842387E0
2.853447167E0,-1.216470751E0,-1.520958732E-1,-2.028651125E0,2.370307919E0
2.863502167E0,-1.181407776E0,4.489302143E-2,-2.302546985E0,2.588331960E0
2.873558167E0,-1.048597921E0,2.693242148E-1,-2.501748759E0,2.725956710E0
2.883614167E0,-8.995626263E-1,4.598398031E-1,-2.690361224E0,2.873796980E0
2.893669167E0,-7.842415734E-1,6.233601125E-1,-2.792928988E0,2.967164473E0
2.903725167E0,-7.006570143E-1,8.238105588E-1,-2.829489289E0,3.029124250E0
2.913781167E0,-5.864546800E-1,9.556427599E-1,-2.805159025E0,3.020943450E0
2.923836167E0,-4.859978340E-1,1.079297776E0,-2.653445998E0,2.905486749E0
2.933892167E0,-3.962380305E-1,1.152650950E0,-2.354945054E0,2.651673999E0
2.943948167E0,-3.380936104E-1,1.128641991E0,-1.896923881E0,2.233038343E0
2.954004167E0,-2.802923488E-1,1.014139475E0,-1.363519235E0,1.722273898E0
2.964059167E0,-1.287814164E-1,8.519768889E-1,-8.643792719E-1,1.220492031E0
2.974115167E0,-2.757049888E-2,7.448652537E-1,-4.469833839E-1,8.691251487E-1
2.984171167E0,-2.753285743E-2,6.640912320E-1,-8.966354370E-2,6.706823195E-1
2.994226167E0,-7.216728576E-2,5.336509605E-1,1.857789052E-1,5.696536372E-1
3.004282167E0,-1.949664889E-1,4.225018229E-1,3.764642090E-1,5.985357322E-1
3.014338167E0,-3.998582610E-1,3.749674679E-1,5.505650550E-1,7.769228473E-1
3.024393167E0,-5.139022820E-1,3.202419148E-1,6.668269980E-1,9.007267536E-1
3.034449167E0,-5.752319728E-1,3.297826704E-1,7.313475144E-1,9.871765896E-1
3.044505167E0,-6.267505474E-1,3.890200813E-1,7.582949924E-1,1.057905557E0
3.054560167E0,-5.677378888E-1,4.325882699E-1,7.481956816E-1,1.034048210E0
3.064616167E0,-4.704767655E-1,4.911348322E-1,6.891592687E-1,9.682470284E-1
3.074672167E0,-4.067655037E-1,5.210192205E-1,6.929845172E-1,9.576777873E-1
3.084727167E0,-3.100044635E-1,5.093212809E-1,7.197782135E-1,9.346612280E-1
3.094783167E0,-2.211803607E-1,4.564890562E-1,7.678867650E-1,9.203005456E-1
3.104839167E0,-1.786592623E-1,4.227479906E-1,8.492197806E-1,9.653026630E-1
3.114894167E0,-1.103460956E-1,3.677869409E-1,1.031268747E0,1.100435697E0
3.124950167E0,-8.927419223E-2,3.333575119E-1,1.219875365E0,1.267751166E0
3.135006167E0,-1.920066284E-1,4.999702674E-1,1.323987964E0,1.428208998E0
3.145061167E0,-3.125088260E-1,8.818541144E-1,1.175773911E0,1.502588678E0
3.155117167E0,-1.638017066E-1,1.175566773E0,7.866107190E-1,1.423918769E0
3.165173167E0,1.430051339E-1,1.158613210E0,5.875095177E-1,1.306905686E0
3.175228167E0,3.881231915E-1,9.023553295E-1,9.092338479E-1,1.338503247E0
3.185284167E0,4.949462666E-1,4.663470232E-1,1.529833928E0,1.674169406E0
3.195340167E0,4.300222924E-1,2.437192574E-2,2.255547650E0,2.296303196E0
3.205396167E0,2.766488756E-1,-3.702790242E-1,2.926847768E0,2.963119811E0
3.215451167E0,1.290113582E-1,-7.973656489E-1,3.401877322E0,3.496456095E0
3.225507167E0,-6.857307538E-2,-1.256651428E0,3.683065830E0,3.892152231E0
3.235563167E0,-3.289930040E-1,-1.547056317E0,3.696980449E0,4.021104834E0
3.245618167E0,-6.069652507E-1,-1.669681785E0,3.251346018E0,3.705063428E0
3.255674167E0,-8.362866166E-1,-1.520389944E0,2.184926149E0,2.790136765E0
3.265730167E0,-9.303016582E-1,-1.136217643E0,7.114599645E-1,1.631755799E0
3.275785042E0,-8.279720221E-1,-8.113383016E-1,-7.908376712E-1,1.403293174E0
3.285841042E0,-6.171496385E-1,-6.267342483E-1,-2.061429446E0,2.241240919E0
3.295897042E0,-3.693499017E-1,-4.577476694E-1,-2.902956630E0,2.961943530E0
3.305952042E0,-1.674769740E-1,-3.733631381E-1,-3.212285448E0,3.238244334E0
3.316008042E0,-1.407345870E-1,-3.935518196E-1,-3.121009242E0,3.148870900E0
3.326064042E0,-2.833508080E-1,-4.933598439E-1,-2.751067602E0,2.809281860E0
3.336119042E0,-4.600011863E-1,-6.601070854E-1,-2.273064154E0,2.411257578E0
3.346175042E0,-6.552438100E-1,-8.176418924E-1,-1.847885622E0,2.124279640E0
3.356231042E0,-7.713991874E-1,-8.942057727E-1,-1.535526193E0,1.937137414E0
3.366286042E0,-6.929355468E-1,-9.182221878E-1,-1.300100334E0,1.735958679E0
3.376342042E0,-4.853000419E-1,-8.367159484E-1,-1.090929058E0,1.457990370E0
3.386398042E0,-1.419584092E-1,-7.184171279E-1,-8.607803106E-1,1.130140745E0
3.396453042E0,2.371630669E-1,-6.817449993E-1,-7.306446791E-1,1.027065826E0
3.406509042E0,5.689068934E-1,-6.811851284E-1,-6.916981298E-1,1.125217550E0
3.416565042E0,7.607993549E-1,-6.877179301E-1,-6.026526368E-1,1.189521673E0
3.426620042E0,7.701050524E-1,-7.252712341E-1,-4.688461232E-1,1.157107100E0
3.436676042E0,6.995778376E-1,-7.980415870E-1,-2.911001229E-1,1.100462997E0
3.446732042E0,6.611629464E-1,-8.192067535E-1,-4.594625115E-2,1.053730138E0
3.456787042E0,5.998684850E-1,-7.621509388E-1,9.224918246E-2,9.742823844E-1
3.466843042E0,5.778455320E-1,-6.687201802E-1,7.499872684E-2,8.869706575E-1
3.476899042E0,6.597012156E-1,-5.445868617E-1,2.275736332E-3,8.554447514E-1
3.486955042E0,9.197493343E-1,-3.890006393E-1,-1.494004530E-1,1.009742953E0
3.497010042E0,1.211159140E0,-1.977035706E-1,-3.917909306E-1,1.288213219E0
3.507066042E0,1.456287504E0,-3.390946537E-3,-5.850150955E-1,1.569403534E0
3.517122042E0,1.704362644E0,1.471717867E-1,-6.502805471E-1,1.830130145E0
3.527177042E0,2.004763202E0,2.294593602E-1,-5.711636263E-1,2.097130178E0
3.537233042E0,2.279619175E0,2.239566918E-1,-5.387776530E-1,2.353104661E0
3.547289042E0,2.425205782E0,2.444620000E-1,-5.301793224E-1,2.494488899E0
3.557344042E0,2.456426405E0,2.229834227E-1,-5.436887294E-1,2.525737462E0
3.567400042E0,2.283564000E0,1.319466604E-1,-5.343980885E-1,2.348969088E0
3.577456042E0,1.979955805E0,-2.485446721E-2,-4.801610702E-1,2.037497825E0
3.587511042E0,1.660637020E0,-1.727941395E-1,-3.609357584E-1,1.708170878E0
3.597567042E0,1.497381004E0,-2.818806718E-1,-1.857040608E-1,1.534956867E0
3.607623042E0,1.506458222E0,-3.892207870E-1,2.759476483E-2,1.556171799E0
3.617678042E0,1.617579001E0,-4.747063489E-1,3.275803167E-1,1.717328392E0
3.627734042E0,1.795295472E0,-5.536376207E-1,6.870975405E-1,2.000425824E0
3.637790042E0,1.923103035E0,-6.163250349E-1,1.049706187E0,2.275975596E0
3.647845042E0,1.863530286E0,-4.530909468E-1,1.284258472E0,2.308106661E0
3.657901042E0,1.827268632E0,-3.859970708E-1,1.100927212E0,2.167935681E0
3.667957042E0,1.917849604E0,-5.419677477E-1,8.961869556E-1,2.185183563E0
3.678012042E0,2.071838660E0,-6.858456516E-1,8.842352468E-1,2.354733883E0
3.688068042E0,2.296274677E0,-9.604851316E-1,1.226489151E0,2.774830575E0
3.698124042E0,2.390348922E0,-1.374383215E0,2.106472303E0,3.469859183E0
3.708179042E0,2.373233683E0,-1.808011997E0,3.229228340E0,4.396482818E0
3.718235042E0,2.267765700E0,-2.199080504E0,4.219869463E0,5.271244124E0
3.728291042E0,2.085037580E0,-2.503112037E0,4.993954276E0,5.962594309E0
3.738346042E0,1.756193095E0,-2.699302787E0,5.301787376E0,6.203176533E0
3.748402042E0,1.368431042E0,-2.794116265E0,5.107712442E0,5.980670164E0
3.758458042E0,1.011746794E0,-2.729460386E0,4.444379155E0,5.312823322E0
3.768513042E0,7.930105696E-1,-2.456994170E0,3.488688594E0,4.340119148E0
3.778569042E0,7.239667933E-1,-2.056399964E0,2.568538579E0,3.369020505E0
3.788625042E0,8.548260909E-1,-1.624514383E0,1.761631005E0,2.544232384E0
3.798680042E0,1.003018217E0,-1.189007987E0,9.476728588E-1,1.821501958E0
3.808736042E0,1.052277062E0,-7.076210482E-1,8.975476027E-2,1.271247607E0
3.818792042E0,1.119225488E0,-2.600443912E-1,-7.781848812E-1,1.387753756E0
3.828848042E0,1.300984287E0,1.469813868E-1,-1.567666583E0,2.042484310E0
3.838903042E0,1.669077768E0,5.274732310E-1,-2.193783512E0,2.806552102E0
3.848959042E0,2.095389782E0,8.185718190E-1,-2.627307774E0,3.458824122E0
3.859015042E0,2.492474490E0,1.058846482E0,-2.768073644E0,3.872443241E0
3.869070042E0,2.771588698E0,1.220502845E0,-2.709951151E0,4.063885621E0
3.879126042E0,2.932295035E0,1.302295378E0,-2.556985651E0,4.102743355E0
3.889182042E0,2.964220832E0,1.309247133E0,-2.383097059E0,4.022422751E0
3.899237042E0,2.868475599E0,1.301978313E0,-2.197706409E0,3.840991181E0
3.909293042E0,2.595166799E0,1.212240875E0,-2.018875165E0,3.504322415E0
3.919349042E0,2.224601554E0,1.007349980E0,-1.766020510E0,3.013707766E0
3.929404042E0,1.894754710E0,7.801449410E-1,-1.488524519E0,2.532671867E0
3.939460042E0,1.618216932E0,5.809164897E-1,-1.222128882E0,2.109428598E0
3.949516042E0,1.461950678E0,4.521464753E-1,-1.020179502E0,1.839158079E0
3.959571042E0,1.394907381E0,3.978233568E-1,-9.112277484E-1,1.712999134E0
3.969627042E0,1.470996906E0,3.864361967E-1,-8.584496105E-1,1.746453711E0
3.979683042E0,1.578687415E0,3.921479762E-1,-8.549336797E-1,1.837646752E0
3.989738042E0,1.691739968E0,4.046262268E-1,-8.673502421E-1,1.943708554E0
3.999794042E0,1.813447276E0,4.226195712E-1,-7.906792116E-1,2.022961181E0
4.009850042E0,1.889716311E0,3.898906586E-1,-6.282470691E-1,2.029220747E0
4.019905042E0,1.835360594E0,3.351699295E-1,-4.316291803E-1,1.914991160E0
4.029961042E0,1.718741971E0,2.831672055E-1,-2.345838600E-1,1.757636827E0
4.040017042E0,1.497918948E0,2.017526212E-1,-9.092712700E-2,1.514177347E0
4.050072042E0,1.233457132E0,1.566409139E-1,-7.364918947E-2,1.245542884E0
4.060128042E0,9.508508936E-1,1.682089723E-1,-1.506862557E-1,9.773014008E-1
4.070184042E0,7.050443995E-1,2.176248881E-1,-3.114928722E-1,8.009219729E-1
4.080239042E0,4.930814434E-1,2.751457758E-1,-5.274358088E-1,7.726726604E-1
4.090295042E0,2.691142266E-1,2.773445481E-1,-7.180129391E-1,8.154048357E-1
4.100351042E0,5.985334195E-2,2.485326853E-1,-7.242636126E-1,7.680551405E-1
4.110406042E0,-1.567001170E-1,1.651892509E-1,-4.664300537E-1,5.190370028E-1
4.120462042E0,-2.998466074E-1,5.212061852E-4,-9.669540524E-3,3.000029327E-1
4.130518042E0,-2.814733402E-1,-1.671400282E-1,4.841658282E-1,5.844480982E-1
4.140573042E0,-1.836335617E-1,-2.512197002E-1,9.228140062E-1,9.738677081E-1
4.150629042E0,-1.058403774E-1,-2.824797191E-1,1.326656633E0,1.360520047E0
4.160685042E0,-4.646446064E-2,-2.757534476E-1,1.746433507E0,1.768679989E0
4.170740042E0,-9.565854773E-2,-4.877805769E-2,2.063212847E0,2.066005109E0
4.180796042E0,-3.223643079E-1,2.974759269E-1,1.813834362E0,1.866120512E0
4.190852042E0,-5.701628754E-1,5.775101211E-1,1.034095876E0,1.314518134E0
4.200908042E0,-4.529734178E-1,6.376545813E-1,2.942085028E-1,8.356715416E-1
4.210963042E0,1.447862689E-1,3.442347948E-1,3.520053059E-1,5.131943034E-1
4.221019042E0,8.740865269E-1,-3.176240433E-1,1.582191067E0,1.835276781E0
4.231075042E0,1.325316305E0,-1.028316999E0,3.197912407E0,3.611169190E0
4.241130042E0,1.340958923E0,-1.506130632E0,4.709549215E0,5.123129329E0
4.251186042E0,9.712963410E-1,-1.921796036E0,5.715213005E0,6.107403399E0
4.261242042E0,2.961647619E-1,-2.192317907E0,5.889836007E0,6.291592769E0
4.271297042E0,-4.606378019E-1,-2.206045707E0,5.115153608E0,5.589599385E0
4.281356167E0,-9.003329238E-1,-1.873996802E0,3.367527854E0,3.957613831E0
4.291412167E0,-9.852710402E-1,-1.229632468E0,1.384665105E0,2.097630206E0
4.301467167E0,-7.796076550E-1,-4.940797824E-1,-4.402690262E-1,1.022614171E0
4.311523167E0,-4.742186911E-1,1.846455686E-1,-1.728656217E0,1.802007123E0
4.321579167E0,-1.586481169E-2,5.909565244E-1,-2.247313017E0,2.323767867E0
4.331634167E0,6.769991067E-1,6.170429999E-1,-1.991072824E0,2.191675351E0
4.341690167E0,1.375823384E0,2.783197175E-1,-9.994710034E-1,1.723163990E0
4.351746167E0,1.815894482E0,-3.203376630E-1,2.475857288E-1,1.860480498E0
4.361801167E0,1.966003179E0,-8.130971441E-1,1.451088306E0,2.575257800E0
4.371857167E0,2.006552450E0,-1.186513126E0,2.448228609E0,3.380516152E0
4.381913167E0,2.074941485E0,-1.546278199E0,3.030059896E0,3.984673312E0
4.391968167E0,2.078743637E0,-1.798006242E0,3.070096366E0,4.120618066E0
4.402024167E0,1.960525361E0,-1.858195433E0,2.625571151E0,3.766984713E0
4.412080167E0,1.774246519E0,-1.698223507E0,1.762677072E0,3.023068681E0
4.422135167E0,1.601391861E0,-1.439034271E0,7.549164712E-1,2.281485131E0
4.432191167E0,1.377273640E0,-1.202771383E0,-1.481070489E-1,1.834523746E0
4.442247167E0,1.121454593E0,-9.106534056E-1,-1.037188468E0,1.778400952E0
4.452302167E0,9.241227593E-1,-5.679327473E-1,-1.864744899E0,2.157272356E0
4.462358167E0,8.682103676E-1,-2.715006215E-1,-2.603986155E0,2.758304864E0
4.472414167E0,9.328943136E-1,-4.556676686E-2,-3.208364890E0,3.341552543E0
4.482469167E0,1.055744314E0,1.073041548E-1,-3.647082065E0,3.798330926E0
4.492525167E0,1.193107105E0,2.087103693E-1,-3.874565066E0,4.059472753E0
4.502581167E0,1.271059114E0,2.931573196E-1,-3.801792959E0,4.019348478E0
4.512636167E0,1.306880619E0,3.558334780E-1,-3.461621833E0,3.717173675E0
4.522692167E0,1.299625540E0,3.245880041E-1,-2.984814726E0,3.271620831E0
4.532748167E0,1.266908029E0,2.313803168E-1,-2.463893300E0,2.780173196E0
4.542803167E0,1.120826164E0,1.296191031E-1,-1.926549969E0,2.232632344E0
4.552859167E0,8.744386755E-1,-7.031715363E-2,-1.428796965E0,1.676618104E0
4.562915167E0,6.764048834E-1,-3.539337176E-1,-9.499526882E-1,1.218688948E0
4.572970167E0,4.643309033E-1,-5.475185095E-1,-4.692893422E-1,8.576783737E-1
4.583026167E0,2.712149119E-1,-6.646945915E-1,-8.579853415E-2,7.230060974E-1
4.593082167E0,9.951668680E-2,-7.114178646E-1,1.957022148E-1,7.445255576E-1
4.603138167E0,-7.204339787E-2,-7.168931973E-1,2.547450596E-1,7.642127668E-1
4.613193167E0,-2.788489636E-1,-6.707105725E-1,8.671771646E-2,7.315253781E-1
4.623249167E0,-4.616956363E-1,-5.368780388E-1,-1.713941699E-1,7.285443367E-1
4.633305167E0,-4.782601404E-1,-3.924545896E-1,-2.802973920E-1,6.792054143E-1
4.643360167E0,-3.199755011E-1,-2.979032122E-1,-1.668748569E-1,4.679507057E-1
4.653416167E0,-6.335618958E-2,-3.033163451E-1,1.888124406E-1,3.628566518E-1
4.663472167E0,1.389465816E-1,-3.315244829E-1,6.245902205E-1,7.206438640E-1
4.673527167E0,2.823716187E-1,-2.941471801E-1,1.154142137E0,1.224050802E0
4.683583167E0,3.438395961E-1,-2.327201331E-1,1.687774825E0,1.738093262E0
4.693639167E0,3.437257947E-1,-1.815656939E-1,1.993112333E0,2.030667450E0
4.703694167E0,2.338856294E-1,-9.702540748E-2,1.993558475E0,2.009575033E0
4.713750167E0,1.272645025E-1,6.477962114E-2,1.692287121E0,1.698301608E0
4.723806167E0,1.061121999E-1,2.757766903E-1,1.284758994E0,1.318301276E0
4.733861167E0,2.125322556E-1,3.640571482E-1,9.201669717E-1,1.012133797E0
4.743917167E0,4.557469714E-1,3.013405710E-1,6.708925670E-1,8.652215197E-1
4.753973167E0,7.040851638E-1,1.330270066E-1,6.512459224E-1,9.682733880E-1
4.764028167E0,9.277758072E-1,-1.527009138E-1,9.060857069E-1,1.305785904E0
4.774084167E0,1.063026875E0,-4.786550467E-1,1.404697666E0,1.825462222E0
4.784140167E0,1.046180609E0,-7.186627109E-1,1.899089105E0,2.284186811E0
4.794195167E0,8.847936559E-1,-8.968353387E-1,2.466669558E0,2.769771136E0
4.804251167E0,6.710147008E-1,-1.054049207E0,2.867625414E0,3.128027489E0
4.814307167E0,4.574701459E-1,-1.096278968E0,2.878156250E0,3.113661816E0
4.824362167E0,2.482452216E-1,-9.249746255E-1,2.170327991E0,2.372240994E0
4.834418167E0,2.182709324E-1,-4.993388412E-1,1.044196356E0,1.177848678E0
4.844474167E0,3.608336513E-1,-1.185934471E-1,1.355267644E-2,3.800644744E-1
4.854529167E0,5.893703941E-1,1.762240431E-1,-8.459950411E-1,1.046001905E0
4.864585167E0,8.385714892E-1,4.960516097E-1,-1.396931979E0,1.703140715E0
4.874641167E0,1.110950947E0,7.161169063E-1,-1.654374944E0,2.117543833E0
4.884696167E0,1.420298915E0,8.468129935E-1,-1.766490626E0,2.419675678E0
4.894752167E0,1.672905355E0,9.517077300E-1,-1.817114065E0,2.646934728E0
4.904808167E0,1.817564009E0,1.054307581E0,-1.873283588E0,2.815012398E0
4.914863167E0,1.903271326E0,1.085973031E0,-1.862389641E0,2.875808467E0
4.924919167E0,1.928528666E0,1.045062986E0,-1.741658086E0,2.800848506E0
4.934975167E0,1.911779171E0,9.158604974E-1,-1.433096423E0,2.558801557E0
4.945030167E0,1.813915200E0,7.089900275E-1,-9.868088579E-1,2.183288101E0
4.955086167E0,1.646195566E0,4.982359102E-1,-5.180574596E-1,1.796269021E0
4.965142167E0,1.361927038E0,3.083132295E-1,-1.076665360E-1,1.400533608E0
4.975197167E0,9.188820460E-1,1.566974857E-1,7.693883300E-2,9.353170054E-1
4.985253167E0,4.381741881E-1,8.741930924E-2,5.831135809E-2,4.505984567E-1
4.995309167E0,-5.543942504E-2,1.323878329E-1,-8.157158196E-2,1.650878285E-1
5.005364167E0,-4.350366452E-1,2.820715834E-1,-3.028582889E-1,6.004534986E-1
5.015420167E0,-7.089702932E-1,4.888196272E-1,-5.831129962E-1,1.040002053E0
5.025476167E0,-9.216848358E-1,7.406224409E-1,-8.635665089E-1,1.464162440E0
5.035531167E0,-1.106470664E0,9.654273444E-1,-1.094196482E0,1.831281854E0
5.045587167E0,-1.301240833E0,1.195779136E0,-1.273722374E0,2.178413215E0
5.055643167E0,-1.527845290E0,1.479234755E0,-1.372610486E0,2.531107710E0
5.065698167E0,-1.674881860E0,1.737898327E0,-1.372525116E0,2.776570733E0
5.075754167E0,-1.711280047E0,1.997328468E0,-1.182063761E0,2.883587200E0
5.085810167E0,-1.638679994E0,2.214111649E0,-8.265489560E-1,2.875890418E0
5.095866167E0,-1.559094273E0,2.313674821E0,-3.919183999E-1,2.817350912E0
5.105921167E0,-1.311174960E0,2.372639313E0,-3.502482176E-4,2.710829617E0
5.115977167E0,-9.419039228E-1,2.430517685E0,2.768048501E-1,2.621301231E0
5.126032167E0,-6.063550206E-1,2.434815535E0,3.873160565E-1,2.538898743E0
5.136088167E0,-2.752430588E-1,2.425847075E0,3.361160821E-1,2.464440463E0
5.146144167E0,-2.037813127E-2,2.328325897E0,1.736821854E-1,2.334883777E0
5.156200167E0,-7.141613781E-2,2.188360219E0,-7.830298841E-2,2.190924935E0
5.166255167E0,-3.541537191E-1,1.964456883E0,-3.467036355E-1,2.026010640E0
5.176311167E0,-6.668597424E-1,1.740702797E0,-5.153946376E-1,1.934006147E0
5.186367167E0,-8.767758076E-1,1.550262784E0,-5.800876468E-1,1.873112969E0
5.196422167E0,-8.451704375E-1,1.374333514E0,-4.663557941E-1,1.679462236E0
5.206478167E0,-6.382901005E-1,1.225093640E0,-1.803942043E-1,1.393129839E0
5.216534167E0,-2.994111360E-1,1.053751218E0,1.392590421E-1,1.104278832E0
5.226589167E0,9.272521891E-2,8.452419198E-1,6.442058748E-1,1.066786332E0
5.236645167E0,4.332402344E-1,5.652160578E-1,1.291178652E0,1.474553697E0
5.246701167E0,5.614228959E-1,4.104814093E-1,2.014255280E0,2.130942277E0
5.256756167E0,4.363250061E-1,4.895824695E-1,2.737848217E0,2.815294543E0
5.266812167E0,2.881453056E-1,5.360845716E-1,3.256720194E0,3.313101388E0
5.276868333E0,3.889608052E-1,5.358063903E-1,3.481631590E0,3.544028431E0
5.286923333E0,5.374515776E-1,5.486598860E-1,3.562602078E0,3.644449949E0
5.296979333E0,5.173617140E-1,5.117977960E-1,3.543582255E0,3.617537190E0
5.307035333E0,3.332885148E-1,4.868421719E-1,3.483373475E0,3.532985607E0
5.317090333E0,1.904310961E-1,3.612376940E-1,3.409298608E0,3.433667671E0
5.327146333E0,8.331288278E-2,2.040662914E-1,3.391517226E0,3.398672267E0
5.337202333E0,-4.186050922E-2,-3.671700597E-2,3.510060167E0,3.510501790E0
5.347257333E0,-7.214682050E-2,-3.807333342E-1,3.664468760E0,3.684900858E0
5.357313333E0,-5.224004790E-2,-7.556727355E-1,3.821969361E0,3.896308523E0
5.367369333E0,-1.219868056E-2,-1.109622241E0,3.973958961E0,4.125985961E0
5.377424333E0,-4.619936250E-2,-1.271430412E0,3.905271134E0,4.107287707E0
5.387480333E0,-2.563596951E-1,-1.261274091E0,3.294668623E0,3.537142061E0
5.397536333E0,-5.856821897E-1,-1.095829609E0,2.231599209E0,2.554192865E0
5.407591333E0,-8.951093137E-1,-9.638626295E-1,8.089190161E-1,1.544215602E0
5.417647333E0,-1.134523559E0,-8.579274541E-1,-6.497478658E-1,1.563763253E0
5.427703333E0,-1.294038233E0,-8.231537703E-1,-1.781941309E0,2.351049108E0
5.437758333E0,-1.358825675E0,-9.186858720E-1,-2.441197917E0,2.941060730E0
5.447814333E0,-1.228609059E0,-1.084062672E0,-2.577861965E0,3.054512139E0
5.457870333E0,-9.561179924E-1,-1.255338436E0,-2.226673515E0,2.729122780E0
5.467925333E0,-7.037594739E-1,-1.459748178E0,-1.535069525E0,2.232169480E0
5.477981333E0,-5.370438074E-1,-1.718132106E0,-8.709334159E-1,1.999729732E0
5.488037333E0,-5.399688770E-1,-1.933478919E0,-5.003988683E-1,2.068890076E0
5.498092333E0,-6.928916927E-1,-2.134628254E0,-4.334576046E-1,2.285743244E0
5.508148333E0,-7.667734551E-1,-2.300160444E0,-5.841777742E-1,2.493981410E0
5.518204333E0,-6.897961767E-1,-2.378827422E0,-8.901315790E-1,2.631914302E0
5.528259333E0,-5.465746227E-1,-2.315006671E0,-1.316743264E0,2.718788798E0
5.538315333E0,-3.650399190E-1,-2.110328103E0,-1.843027171E0,2.825506680E0
5.548371333E0,-2.033432101E-1,-1.837977077E0,-2.380019669E0,3.013967787E0
5.558426333E0,-8.234896928E-2,-1.638263234E0,-2.856253749E0,3.293762781E0
5.568482333E0,-3.650080517E-2,-1.486780002E0,-3.291324601E0,3.611739845E0
5.578538333E0,3.569330469E-2,-1.314436537E0,-3.680436337E0,3.908276993E0
5.588593333E0,6.995053321E-2,-1.131495578E0,-4.064475029E0,4.219612847E0
5.598649333E0,9.453135073E-2,-9.607890406E-1,-4.432877682E0,4.536789206E0
5.608705333E0,1.107566433E-1,-8.625616649E-1,-4.618131507E0,4.699299764E0
5.618760333E0,7.511932567E-2,-8.056147546E-1,-4.648942825E0,4.718826913E0
5.628816333E0,4.626536295E-2,-8.753784692E-1,-4.497630333E0,4.582259984E0
5.638872333E0,2.262536243E-2,-9.915027103E-1,-4.212746969E0,4.327912495E0
5.648927333E0,-2.955650568E-2,-1.056430485E0,-3.732754299E0,3.879481101E0
5.658983333E0,-1.168745850E-1,-1.134050227E0,-3.184877794E0,3.382776396E0
5.669039333E0,-1.442025706E-1,-1.207498272E0,-2.615826182E0,2.884682490E0
5.679094333E0,-9.024402604E-2,-1.267173201E0,-2.088006796E0,2.444103984E0
5.689150333E0,-1.762204617E-3,-1.310968553E0,-1.599888834E0,2.068401783E0
5.699206333E0,1.457292786E-1,-1.336246213E0,-1.100058315E0,1.736928111E0
5.709261333E0,2.573574494E-1,-1.313703296E0,-6.337387741E-1,1.481105682E0
5.719317333E0,3.677272993E-1,-1.242007661E0,-2.709541261E-2,1.295585026E0
5.729373333E0,3.730975284E-1,-1.234284805E0,7.726785582E-1,1.503227495E0
5.739428333E0,3.236242367E-1,-1.365898321E0,1.734767143E0,2.231552802E0
5.749484333E0,3.159455270E-1,-1.441796349E0,2.840618294E0,3.201204552E0
5.759540333E0,3.739978534E-1,-1.519491958E0,3.924576886E0,4.225048395E0
5.769595333E0,5.636724660E-1,-1.475055604E0,4.656637761E0,4.917091714E0
5.779651333E0,7.612545606E-1,-1.184820869E0,4.756097145E0,4.960218650E0
5.789707333E0,9.444829103E-1,-7.694185893E-1,4.310700111E0,4.479529928E0
5.799762333E0,1.091609089E0,-3.770407444E-1,3.617136135E0,3.797030938E0
5.809818333E0,1.212189785E0,-9.301750660E-3,2.703832625E0,2.963140472E0
5.819874333E0,1.263538717E0,4.665105991E-1,1.780192407E0,2.232318802E0
5.829930333E0,1.397725008E0,9.545537160E-1,8.998999375E-1,1.916931895E0
5.839985333E0,1.544326983E0,1.572215571E0,8.138797939E-2,2.205318942E0
5.850041333E0,1.773277636E0,2.248455416E0,-7.687965918E-1,2.964981203E0
5.860097333E0,2.064044760E0,2.728824209E0,-1.608091893E0,3.780571633E0
5.870152333E0,2.392427899E0,2.967850199E0,-2.132721038E0,4.368105434E0
5.880208333E0,2.736247249E0,2.971773680E0,-2.000336568E0,4.507752677E0
5.890264333E0,2.962945554E0,2.767137212E0,-1.169857698E0,4.219557055E0
5.900319333E0,2.852185841E0,2.446818407E0,1.792177445E-1,3.762180669E0
5.910375333E0,2.400207766E0,2.044957986E0,1.428776500E0,3.461827952E0
5.920431333E0,1.830086406E0,1.693813975E0,2.154452215E0,3.295434172E0
5.930486333E0,1.332970456E0,1.468048739E0,2.549032853E0,3.229480736E0
5.940542333E0,9.723285207E-1,1.374630699E0,2.829757091E0,3.292803897E0
5.950598333E0,6.334737490E-1,1.366368583E0,3.151471481E0,3.492853360E0
5.960653333E0,4.584889501E-1,1.418758758E0,3.548520813E0,3.849037346E0
5.970709333E0,5.470117021E-1,1.424463886E0,3.865144032E0,4.155437108E0
5.980765333E0,7.658633360E-1,1.326856462E0,4.110779715E0,4.386981261E0
5.990820333E0,1.151026594E0,1.105200576E0,4.251219894E0,4.540837051E0
6.000876333E0,1.626192388E0,7.908597444E-1,4.291526506E0,4.656947559E0
6.010932333E0,2.132947033E0,4.580342560E-1,4.296579670E0,4.818698505E0
6.020987333E0,2.602146036E0,2.253078371E-1,4.288159094E0,5.020979589E0
6.031043333E0,2.887516765E0,1.253023231E-1,4.278280224E0,5.163054853E0
6.041099333E0,3.088106082E0,-2.684617504E-2,4.122701603E0,5.151095844E0
6.051154333E0,3.184567891E0,-2.339726798E-1,3.727925668E0,4.908527850E0
6.061210333E0,3.025186534E0,-4.476373219E-1,3.047916707E0,4.317630020E0
6.071266333E0,2.700482170E0,-6.247959694E-1,2.107231271E0,3.481866968E0
6.081321333E0,2.298993047E0,-7.686838867E-1,9.693473178E-1,2.610723688E0
6.091377333E0,1.814959805E0,-8.226541988E-1,-1.209286058E-1,1.996362380E0
6.101433333E0,1.449084319E0,-8.477886745E-1,-1.015158498E0,1.961921960E0
6.111488333E0,1.174484161E0,-8.628877933E-1,-1.836392335E0,2.344424279E0
6.121544333E0,1.015534913E0,-7.674426690E-1,-2.555582904E0,2.855045251E0
6.131600333E0,9.497801954E-1,-6.145625380E-1,-3.103107991E0,3.302884911E0
6.141655333E0,1.024384381E0,-4.199743639E-1,-3.426986436E0,3.601385547E0
6.151711333E0,1.193246999E0,-2.376666583E-1,-3.632939404E0,3.831262528E0
6.161767333E0,1.284760748E0,-1.965152702E-1,-3.830926711E0,4.045395889E0
6.171822333E0,1.235958863E0,-2.462929094E-1,-3.945140959E0,4.141544603E0
6.181878333E0,1.041658080E0,-2.573181269E-1,-3.961925392E0,4.104645780E0
6.191934333E0,6.086515877E-1,-1.239413837E-1,-3.969132085E0,4.017440445E0
6.201989333E0,1.122299954E-2,1.122745804E-1,-4.130493017E0,4.132033894E0
6.212045333E0,-6.770089008E-1,2.336243320E-1,-4.520428627E0,4.576810718E0
6.222101333E0,-1.374998927E0,2.211443272E-1,-4.949571571E0,5.141768723E0
6.232156333E0,-1.937635120E0,1.101518950E-1,-5.113171402E0,5.469102768E0
6.242212333E0,-2.017446398E0,-2.570566101E-1,-5.178352654E0,5.563407614E0
6.252268333E0,-1.601694162E0,-7.611626132E-1,-5.154160384E0,5.450702888E0
6.262323333E0,-1.160777849E0,-9.387795362E-1,-4.687550821E0,4.919537065E0
6.272379333E0,-6.867069465E-1,-9.668422244E-1,-3.583677782E0,3.774797579E0
6.282432292E0,-2.418311915E-1,-1.096929324E0,-2.300197574E0,2.559813498E0
6.292487292E0,-4.383423686E-2,-1.112872781E0,-9.200506121E-1,1.444610811E0
6.302543292E0,-1.736245903E-1,-1.132464608E0,6.157620943E-1,1.300686182E0
6.312599292E0,-4.180265102E-1,-1.339978344E0,1.853290204E0,2.324859718E0
6.322654292E0,-7.513517162E-1,-1.531594964E0,2.680964749E0,3.177716872E0
6.332710292E0,-8.941920318E-1,-1.626294276E0,3.109735225E0,3.621445241E0
6.342766292E0,-7.724100249E-1,-1.621697487E0,3.252793788E0,3.715802392E0
6.352821292E0,-5.145577548E-1,-1.412828073E0,3.279041355E0,3.607348757E0
6.362877292E0,6.250103429E-2,-1.381548101E0,3.233000379E0,3.516372134E0
6.372933292E0,5.090808141E-1,-1.439590341E0,3.259299400E0,3.599252173E0
6.382988292E0,4.794382082E-1,-1.377503874E0,3.080966340E0,3.408772727E0
6.393044292E0,5.223750436E-1,-1.435030390E0,2.623788920E0,3.035861690E0
6.403100292E0,7.754779127E-1,-1.555782994E0,2.457233321E0,3.009953872E0
6.413155292E0,1.152065498E0,-1.714316652E0,2.855968405E0,3.524583951E0
6.423211292E0,1.566964771E0,-1.834697666E0,3.439272605E0,4.201201039E0
6.433267292E0,1.959675469E0,-1.911965113E0,4.074615855E0,4.909015472E0
6.443322292E0,2.130290789E0,-2.082534825E0,4.691502369E0,5.557453070E0
6.453378292E0,1.959219678E0,-2.295323920E0,5.057280207E0,5.889239062E0
6.463434292E0,1.546247501E0,-2.494098262E0,5.095323946E0,5.879943332E0
6.473489292E0,1.064874596E0,-2.593702364E0,4.609147845E0,5.394950761E0
6.483545292E0,6.420317338E-1,-2.381657913E0,3.509828033E0,4.289917479E0
6.493601292E0,4.009741290E-1,-1.847642378E0,1.975818608E0,2.734670324E0
6.503656292E0,3.821680216E-1,-1.365796140E0,4.696407598E-1,1.493992616E0
6.513712292E0,5.983102021E-1,-1.027442767E0,-9.809230506E-1,1.541370744E0
6.523768292E0,9.495195557E-1,-6.640579028E-1,-2.158147071E0,2.449522212E0
6.533823292E0,1.328028244E0,-3.412655787E-1,-2.843499218E0,3.156835284E0
6.543879292E0,1.718142778E0,-1.172167933E-1,-2.924721136E0,3.394075442E0
6.553935292E0,2.107540589E0,-5.651085421E-2,-2.309161355E0,3.126842973E0
6.563990292E0,2.314298134E0,-2.015427062E-1,-1.382240850E0,2.703180550E0
6.574046292E0,2.279186628E0,-4.184631510E-1,-4.991580892E-1,2.370434958E0
6.584102292E0,2.139311874E0,-6.023893659E-1,3.417077744E-1,2.248620120E0
6.594157292E0,1.928980656E0,-8.462735148E-1,1.010912250E0,2.336469305E0
6.604213292E0,1.707186411E0,-1.048064289E0,1.305489712E0,2.391072476E0
6.614269292E0,1.488017419E0,-1.098234569E0,1.284622169E0,2.251792425E0
6.624324292E0,1.354452834E0,-1.029793933E0,1.098249772E0,2.025134708E0
6.634380292E0,1.246294840E0,-9.256684707E-1,7.352084309E-1,1.717743981E0
6.644436292E0,1.153811038E0,-8.008478120E-1,2.930875915E-1,1.434760421E0
6.654491292E0,1.067760123E0,-6.455070265E-1,-1.761491257E-1,1.260087107E0
6.664547292E0,9.736087686E-1,-4.346815731E-1,-5.996290416E-1,1.223281281E0
6.674603292E0,8.711157028E-1,-2.056557839E-1,-9.973157197E-1,1.340065489E0
6.684658292E0,7.383399072E-1,1.113412187E-2,-1.390421689E0,1.574338674E0
6.694714292E0,6.820864767E-1,1.877413769E-1,-1.757312252E0,1.894369324E0
6.704770292E0,7.053567870E-1,3.574264057E-1,-2.122907656E0,2.265395937E0
6.714825292E0,7.267486793E-1,4.941692448E-1,-2.398563529E0,2.554500712E0
6.724881292E0,7.493731646E-1,6.152919781E-1,-2.499727961E0,2.681190824E0
6.734937292E0,7.281215324E-1,7.003090319E-1,-2.342605675E0,2.551155631E0
6.744992292E0,7.302140316E-1,6.883223860E-1,-1.899631727E0,2.148394967E0
6.755048292E0,6.358114658E-1,6.551043539E-1,-1.367383075E0,1.644127248E0
6.765104292E0,5.054381450E-1,6.296321283E-1,-8.949245417E-1,1.205319157E0
6.775159292E0,4.092361716E-1,5.962796102E-1,-4.867649156E-1,8.717589694E-1
6.785215292E0,3.105837033E-1,5.356178176E-1,-1.548032802E-1,6.382105757E-1
6.795271292E0,2.298243727E-1,4.581869414E-1,1.028127623E-1,5.228049155E-1
6.805326292E0,2.172458424E-1,3.911516838E-1,3.331427729E-1,5.578346555E-1
6.815382292E0,1.496006470E-1,2.985284257E-1,5.112179714E-1,6.106090311E-1
6.825438292E0,3.488668129E-3,2.353192936E-1,5.570279825E-1,6.047044849E-1
6.835493292E0,-2.625423948E-1,2.660626379E-1,5.012332660E-1,6.252620437E-1
6.845549292E0,-5.609100951E-1,3.258910561E-1,3.068098372E-1,7.176053173E-1
6.855605292E0,-7.591128717E-1,4.048518562E-1,7.489698529E-2,8.635779849E-1
6.865660292E0,-8.229192969E-1,4.579634316E-1,-2.134222019E-1,9.656478189E-1
6.875716292E0,-7.655660051E-1,5.300046368E-1,-4.504741716E-1,1.034370921E0
6.885772292E0,-6.303435152E-1,6.217936434E-1,-5.131463832E-1,1.023366744E0
6.895827292E0,-4.543151345E-1,6.205180733E-1,-3.914845365E-1,8.629629558E-1
6.905883292E0,-3.281616030E-1,5.498367843E-1,-7.251892269E-2,6.444140914E-1
6.915939292E0,-1.948010127E-1,4.104673760E-1,3.618923628E-1,5.808588327E-1
6.925994292E0,-4.400102869E-3,2.599172142E-1,8.505359888E-1,8.893749420E-1
6.936050292E0,1.182556973E-1,1.962381122E-1,1.298735594E0,1.318790335E0
6.946106292E0,1.921639185E-1,1.495711917E-1,1.753527934E0,1.770355537E0
6.956161292E0,1.539958528E-1,1.801385348E-1,2.063054972E0,2.076622362E0
6.966217292E0,-2.377989516E-3,2.793007341E-1,1.880966245E0,1.901591063E0
6.976273292E0,-1.491969699E-1,4.033877134E-1,1.204362118E0,1.278854759E0
6.986328292E0,-2.011533547E-1,5.493816517E-1,6.757077491E-1,8.937918290E-1
6.996384292E0,-7.757705659E-2,5.956514000E-1,7.281531805E-1,9.439416530E-1
7.006440292E0,5.239178315E-2,5.748589935E-1,1.168932669E0,1.303691430E0
7.016495292E0,4.534347631E-2,5.365331262E-1,1.600450752E0,1.688598956E0
7.026551292E0,-5.143400922E-2,4.876241639E-1,1.886801181E0,1.949472103E0
7.036607292E0,-2.276611222E-1,3.111350226E-1,2.098695506E0,2.133812882E0
7.046662292E0,-4.232508512E-1,-2.452760786E-3,2.360029793E0,2.397683866E0
7.056718292E0,-5.138622285E-1,-2.663911052E-1,2.545854306E0,2.610822238E0
7.066774292E0,-5.357865829E-1,-3.565315624E-1,2.623227003E0,2.701018683E0
7.076829292E0,-4.777483629E-1,-3.440527271E-1,2.481502774E0,2.550386597E0
7.086885292E0,-3.279904258E-1,-1.959351533E-1,2.057343997E0,2.092518250E0
7.096941292E0,-2.030489489E-1,6.769460432E-2,1.433660095E0,1.449549138E0
7.106996292E0,-8.010780461E-2,2.453883451E-1,7.325584728E-1,7.767075487E-1
7.117052292E0,1.825290958E-1,2.259072498E-1,1.134470934E-1,3.118031419E-1
7.127108292E0,5.469524259E-1,1.184752603E-1,-2.695893860E-1,6.211857859E-1
7.137163292E0,1.017139973E0,6.202697128E-2,-3.762519550E-1,1.086271883E0
7.147219292E0,1.544115168E0,3.156107739E-2,-3.806426293E-1,1.590652874E0
7.157275292E0,1.950042181E0,2.226999789E-2,-3.839135617E-1,1.987599075E0
7.167330292E0,2.165253777E0,-7.926924080E-3,-4.356134731E-1,2.208652497E0
7.177386292E0,2.165560463E0,-1.367289519E-1,-4.596227252E-1,2.218017127E0
7.187442292E0,1.890554509E0,-3.031503573E-1,-4.415910816E-1,1.964967983E0
7.197497292E0,1.407295876E0,-5.097471043E-1,-4.719375461E-1,1.569410348E0
7.207553292E0,8.425261804E-1,-7.301631609E-1,-6.582736909E-1,1.294725013E0
7.217609292E0,3.345369319E-1,-8.482889038E-1,-9.031965977E-1,1.283461381E0
7.227664292E0,-7.520414684E-2,-8.749984002E-1,-1.172274937E0,1.464754721E0
7.237720292E0,-3.510209271E-1,-8.751551056E-1,-1.493183581E0,1.765986794E0
7.247776292E0,-5.435138977E-1,-8.505782349E-1,-1.836314567E0,2.095457440E0
7.257831292E0,-6.571399889E-1,-7.910420313E-1,-2.150906464E0,2.384109703E0
7.267887292E0,-7.586219249E-1,-6.598552166E-1,-2.467750123E0,2.664715145E0
7.277946833E0,-8.214808819E-1,-5.391754098E-1,-2.771441640E0,2.940481207E0
7.288001833E0,-8.652847863E-1,-4.018784009E-1,-2.909967442E0,3.062374001E0
7.298057833E0,-8.604638301E-1,-2.854012804E-1,-2.846864875E0,2.987723466E0
7.308113833E0,-7.871724902E-1,-1.659417875E-1,-2.643180626E0,2.762893597E0
7.318168833E0,-7.004258300E-1,2.106459439E-3,-2.417536574E0,2.516959250E0
7.328224833E0,-6.331552219E-1,2.220006520E-1,-2.201770808E0,2.301730765E0
7.338280833E0,-5.688678633E-1,3.855518053E-1,-2.044339789E0,2.156753582E0
7.348335833E0,-5.055643717E-1,4.760228495E-1,-1.969378484E0,2.088215674E0
7.358391833E0,-5.022170600E-1,6.254311962E-1,-1.861349421E0,2.026822100E0
7.368447833E0,-5.015394043E-1,8.229228052E-1,-1.629412596E0,1.893073988E0
7.378502833E0,-3.170326340E-1,1.072911886E0,-1.275045015E0,1.696286944E0
7.388558833E0,-1.408133782E-2,1.376513063E0,-7.338664949E-1,1.559982862E0
7.398614833E0,3.996180866E-1,1.627489739E0,-1.958612591E-1,1.687240083E0
7.408669833E0,7.371526301E-1,1.843383851E0,2.899061215E-1,2.006365765E0
7.418725833E0,9.909432779E-1,1.946536629E0,5.595329297E-1,2.254783920E0
7.428781833E0,1.074684908E0,1.985459351E0,6.370804578E-1,2.345819259E0
7.438836833E0,9.812722756E-1,2.089817971E0,5.582442033E-1,2.375262306E0
7.448892833E0,7.888149000E-1,2.099869042E0,4.453835857E-1,2.286929268E0
7.458948833E0,5.085850068E-1,2.005901801E0,4.154429179E-1,2.110661878E0
7.469003833E0,3.103195188E-1,1.863667550E0,6.240446752E-1,1.989720256E0
7.479059833E0,2.461817392E-1,1.768159276E0,1.082226062E0,2.087631654E0
7.489115833E0,2.249926357E-1,1.787154394E0,1.789044507E0,2.538744328E0
7.499170833E0,1.624950001E-1,1.792280502E0,2.502108947E0,3.082080986E0
7.509226833E0,6.657497216E-2,1.652196271E0,3.117951733E0,3.529278645E0
7.519282833E0,-1.221328399E-1,1.274055227E0,3.638152782E0,3.856719956E0
7.529337833E0,-2.966634928E-1,7.919186752E-1,4.195990019E0,4.280359407E0
7.539393833E0,-4.110023231E-1,3.546549717E-1,4.712389208E0,4.743555113E0
7.549449833E0,-4.547259014E-1,2.105918571E-2,5.229040412E0,5.248817273E0
7.559504833E0,-5.798951273E-1,-2.274220441E-1,5.525304796E0,5.560305049E0
7.569560833E0,-7.547655400E-1,-4.890324658E-1,5.394863940E0,5.469312635E0
7.579616833E0,-1.008018025E0,-6.731368746E-1,4.722782049E0,4.875846990E0
7.589671833E0,-1.277287276E0,-7.417326079E-1,3.695106416E0,3.979377021E0
7.599727833E0,-1.363305080E0,-7.594132724E-1,2.756670404E0,3.167734360E0
7.609783833E0,-1.345252094E0,-8.098572019E-1,2.111654105E0,2.631473911E0
7.619838833E0,-1.344288619E0,-8.481283978E-1,1.596818461E0,2.253056340E0
7.629894833E0,-1.375890335E0,-8.286988311E-1,9.806710356E-1,1.881895759E0
7.639950833E0,-1.508398620E0,-7.423879346E-1,1.283124697E-1,1.686081354E0
7.650005833E0,-1.677280534E0,-6.775450905E-1,-9.694952524E-1,2.052378714E0
7.660061833E0,-1.851707070E0,-6.341875479E-1,-1.954610757E0,2.766137403E0
7.670117833E0,-1.985380121E0,-6.774396944E-1,-2.631016663E0,3.364952815E0
7.680172833E0,-2.046170552E0,-7.619006780E-1,-2.756266361E0,3.516292199E0
7.690228833E0,-2.090889473E0,-8.284343907E-1,-2.415031042E0,3.300075342E0
7.700284833E0,-2.071867165E0,-8.908092713E-1,-1.852996674E0,2.918864741E0
7.710339833E0,-2.035157906E0,-9.941789809E-1,-1.322252510E0,2.622710669E0
7.720395833E0,-2.077746979E0,-1.062681744E0,-8.705194330E-1,2.490808921E0
7.730451833E0,-2.137840568E0,-1.154060422E0,-5.352757555E-1,2.487717405E0
7.740506833E0,-2.014877131E0,-1.304196454E0,-3.514948440E-1,2.425738418E0
7.750562833E0,-1.855178270E0,-1.379894508E0,-2.237980860E-1,2.322903539E0
7.760618833E0,-1.666376793E0,-1.444081880E0,-1.266647243E-1,2.208671103E0
7.770673833E0,-1.338373138E0,-1.511702590E0,-4.882425070E-4,2.019031355E0
7.780729833E0,-9.382961907E-1,-1.482184383E0,1.516703421E-1,1.760759546E0
7.790785833E0,-5.964593756E-1,-1.400277317E0,2.876122588E-1,1.548954862E0
7.800840833E0,-3.573601860E-1,-1.313824334E0,3.472269613E-1,1.405136024E0
7.810896833E0,-1.669896816E-1,-1.221285275E0,2.236267626E-1,1.252769814E0
7.820952833E0,-2.141571055E-2,-1.114138995E0,-1.390847951E-1,1.122991057E0
7.831007833E0,1.164792127E-1,-9.497177763E-1,-6.322904187E-1,1.146875074E0
7.841063833E0,3.165394944E-1,-7.377823752E-1,-1.176852722E0,1.424606056E0
7.851119833E0,5.885335113E-1,-5.076017609E-1,-1.683827369E0,1.854536560E0
7.861174833E0,8.648382052E-1,-2.300823811E-1,-2.103208387E0,2.285687761E0
7.871230833E0,1.160212935E0,3.570748419E-2,-2.427721254E0,2.690947708E0
7.881286833E0,1.329038789E0,2.879236230E-1,-2.630762309E0,2.961444655E0
7.891341833E0,1.496668375E0,4.405251342E-1,-2.659313679E0,3.083184695E0
7.901397833E0,1.642738546E0,4.726918370E-1,-2.453602785E0,2.990350168E0
7.911453833E0,1.727329192E0,3.662616947E-1,-2.124026229E0,2.762118967E0
7.921508833E0,1.779843182E0,1.873298791E-1,-1.807622865E0,2.543704908E0
7.931564833E0,1.691777390E0,7.173159510E-2,-1.468061603E0,2.241084789E0
7.941620833E0,1.519725700E0,5.504568815E-3,-1.129542900E0,1.893532062E0
7.951675833E0,1.299665008E0,-1.109263587E-1,-7.467718846E-1,1.503030951E0
7.961731833E0,1.012509783E0,-2.725913465E-1,-3.772377956E-1,1.114356521E0
7.971787833E0,8.035624550E-1,-4.711803317E-1,-9.187145233E-2,9.360362641E-1
7.981842833E0,7.523564871E-1,-6.378128216E-1,7.526769876E-2,9.891970004E-1
7.991898833E0,9.022069564E-1,-7.192022628E-1,9.415537477E-2,1.157624517E0
8.001954833E0,1.226534029E0,-7.250436312E-1,1.392134339E-1,1.431591552E0
8.012009833E0,1.508425079E0,-7.426183149E-1,3.219184577E-1,1.711858544E0
8.022065833E0,1.716415510E0,-8.466455439E-1,6.832337004E-1,2.032166127E0
8.032121833E0,1.786904426E0,-8.803117651E-1,1.298382422E0,2.377766419E0
8.042176833E0,1.632180229E0,-7.785368836E-1,1.860813816E0,2.594756258E0
8.052232833E0,1.569753454E0,-7.916849327E-1,1.925247794E0,2.607195813E0
8.062288833E0,1.532273533E0,-9.012138069E-1,1.557748536E0,2.363605087E0
8.072343833E0,1.399825620E0,-8.275809896E-1,1.250343452E0,2.051282723E0
8.082399833E0,1.378287986E0,-6.433425334E-1,1.212950508E0,1.945460440E0
8.092455833E0,1.441576932E0,-4.981666937E-1,1.128086944E0,1.897075185E0
8.102510833E0,1.455478834E0,-4.314315444E-1,9.084023738E-1,1.769109009E0
8.112566833E0,1.337548534E0,-4.372872385E-1,6.859292668E-1,1.565488795E0
8.122622833E0,1.116092843E0,-5.625258270E-1,5.985999316E-1,1.385792343E0
8.132677833E0,8.188447378E-1,-7.280368209E-1,7.429062903E-1,1.323802883E0
8.142733833E0,5.140459407E-1,-9.001952219E-1,1.134759786E0,1.536969238E0
8.152789833E0,3.127210068E-1,-1.032601327E0,1.629803190E0,1.954563472E0
8.162844833E0,1.475725951E-1,-1.098792686E0,1.972790920E0,2.262968636E0
8.172900833E0,-1.921698388E-2,-1.137893017E0,2.148440108E0,2.431247562E0
8.182956833E0,-8.912934573E-2,-1.248206295E0,2.249479410E0,2.574125213E0
8.193011833E0,1.370802965E-2,-1.374884322E0,2.206873673E0,2.600151191E0
8.203067833E0,2.206112439E-1,-1.342188592E0,2.115990985E0,2.515463652E0
8.213123833E0,4.895938716E-1,-1.202244987E0,1.882984704E0,2.287078172E0
8.223178833E0,7.487346487E-1,-1.031354701E0,1.452078239E0,1.932052615E0
8.233234833E0,9.136237912E-1,-8.576200368E-1,8.833447158E-1,1.533140061E0
8.243290833E0,9.948745072E-1,-7.052943680E-1,2.966263264E-1,1.255070758E0
8.253345833E0,1.048770779E0,-5.952110316E-1,-1.429445422E-1,1.214343222E0
8.263401833E0,1.068277821E0,-4.994507423E-1,-4.783379084E-1,1.272586226E0
8.273457833E0,9.794524759E-1,-3.973615730E-1,-8.235230219E-1,1.339930424E0
8.283509917E0,8.039273212E-1,-2.770717755E-1,-1.244311464E0,1.507109461E0
8.293565917E0,6.384546997E-1,-1.657007360E-1,-1.733811707E0,1.855042904E0
8.303621917E0,4.712042322E-1,-2.818708777E-2,-2.438371373E0,2.483643069E0
8.313676917E0,3.370028489E-1,1.190700683E-1,-3.142676100E0,3.162935609E0
8.323732917E0,2.543134620E-1,2.695674589E-1,-3.653836768E0,3.672582890E0
8.333788917E0,2.422124482E-1,3.772375032E-1,-3.917239215E0,3.942808399E0
8.343843917E0,2.411471586E-1,5.193912095E-1,-3.954405872E0,3.995653261E0
8.353899917E0,2.608036156E-1,6.453007659E-1,-3.763676714E0,3.827491870E0
8.363955917E0,2.722453192E-1,7.386445472E-1,-3.379541543E0,3.470016473E0
8.374010917E0,1.894785664E-1,7.517744699E-1,-2.904488016E0,3.006179904E0
8.384066917E0,9.147126524E-2,7.124139377E-1,-2.307839885E0,2.417028247E0
8.394122917E0,-8.891581273E-2,6.360621652E-1,-1.720641439E0,1.836596870E0
8.404177917E0,-2.918597128E-1,5.703163648E-1,-1.226062889E0,1.383355723E0
8.414233917E0,-3.898310901E-1,4.474850750E-1,-5.991805601E-1,8.433436517E-1
8.424289917E0,-3.850888155E-1,2.555537295E-1,-7.232479513E-2,4.677948060E-1
8.434344917E0,-3.386321755E-1,2.181917757E-1,3.022630423E-1,5.036291771E-1
8.444400917E0,-3.113160671E-1,3.019592795E-1,5.889409161E-1,7.314017382E-1
8.454456917E0,-3.139958094E-1,3.802248457E-1,7.808383477E-1,9.235111406E-1
8.464511917E0,-4.199914670E-1,4.096185064E-1,9.895155340E-1,1.150356964E0
8.474567917E0,-5.796443914E-1,4.170719522E-1,1.146927257E0,1.351065789E0
8.484623917E0,-7.254983984E-1,4.151181051E-1,1.091602657E0,1.374869931E0
8.494678917E0,-8.781717572E-1,4.831916821E-1,8.197094679E-1,1.294829506E0
8.504734917E0,-1.023711294E0,6.577962658E-1,4.659266084E-1,1.302984399E0
8.514790917E0,-1.039268396E0,8.433053219E-1,1.199497819E-1,1.343737554E0
8.524845917E0,-9.520227487E-1,1.021799181E0,-6.714825511E-2,1.398188031E0
8.534901917E0,-7.552669387E-1,1.151734253E0,-8.599617004E-2,1.379969304E0
8.544957917E0,-4.961860591E-1,1.201774725E0,-1.684115052E-2,1.300287168E0
8.555012917E0,-2.296306471E-1,1.273171274E0,2.370548934E-1,1.315252961E0
8.565068917E0,-5.338061127E-2,1.432271673E0,5.800958329E-1,1.546209175E0
8.575124917E0,7.549586808E-2,1.638695928E0,7.245787776E-1,1.793331641E0
8.585179917E0,2.234901571E-1,1.746287912E0,7.031487322E-1,1.895755116E0
8.595235917E0,4.967370495E-1,1.694697635E0,8.360524356E-1,1.953901596E0
8.605291917E0,9.154652256E-1,1.546418094E0,1.234608595E0,2.180308208E0
8.615346917E0,1.226570574E0,1.429553303E0,1.899482038E0,2.675094397E0
8.625402917E0,1.358141258E0,1.295743281E0,2.590773786E0,3.199313542E0
8.635458917E0,1.375932143E0,1.105834926E0,3.266200869E0,3.712698245E0
8.645513917E0,1.349696709E0,7.630109181E-1,3.883114865E0,4.181201732E0
8.655569917E0,1.348420993E0,2.727677862E-1,4.299060059E0,4.513818652E0
8.665625917E0,1.262982063E0,-1.452205709E-1,4.435254575E0,4.613859106E0
8.675680917E0,1.079120240E0,-4.270584118E-1,4.217517128E0,4.374280524E0
8.685736917E0,8.202389333E-1,-5.231041914E-1,3.592636886E0,3.722024945E0
8.695792917E0,5.073874605E-1,-4.151412016E-1,2.646453313E0,2.726444459E0
8.705847917E0,2.075887272E-1,-3.103560273E-1,1.591238464E0,1.634458256E0
8.715903917E0,5.818176918E-2,-3.349916625E-1,6.973886400E-1,7.758578784E-1
8.725959917E0,5.812607445E-2,-3.165472054E-1,-1.949251199E-1,3.762666291E-1
8.736014917E0,2.110096041E-1,-1.954148242E-1,-8.417142946E-1,8.894914054E-1
8.746070917E0,4.607920587E-1,-8.638310954E-2,-1.150411028E0,1.242270863E0
8.756126917E0,6.492876899E-1,-1.919392392E-2,-1.087604915E0,1.266817810E0
8.766181917E0,7.817972910E-1,-6.211979583E-2,-7.136982787E-1,1.060391959E0
8.776237917E0,7.995623016E-1,-3.198747097E-1,-1.740681016E-1,8.785894423E-1
8.786293917E0,6.855535832E-1,-7.169918691E-1,3.100638127E-1,1.039327005E0
8.796348917E0,5.141950447E-1,-1.069513046E0,5.346085882E-1,1.301561002E0
8.806404917E0,3.443131475E-1,-1.247397332E0,5.607520741E-1,1.410317176E0
8.816460917E0,1.768559810E-1,-1.353554994E0,5.996173471E-1,1.490949404E0
8.826515917E0,1.407782584E-1,-1.459550250E0,5.161249548E-1,1.554506487E0
8.836571917E0,1.594402319E-1,-1.454717819E0,3.770325583E-1,1.511217612E0
8.846627917E0,1.586476783E-1,-1.385651092E0,2.218228966E-1,1.412233491E0
8.856682917E0,1.853301314E-1,-1.311544066E0,4.190699458E-3,1.324580181E0
8.866738917E0,1.845663754E-1,-1.307383333E0,-2.871819037E-1,1.351217737E0
8.876794917E0,1.374413621E-1,-1.268687191E0,-6.689501220E-1,1.440816290E0
8.886849917E0,1.256202289E-1,-1.193326668E0,-1.069642854E0,1.607465338E0
8.896905917E0,2.535814271E-1,-1.050177911E0,-1.391498162E0,1.761659536E0
8.906961917E0,5.054243309E-1,-8.931626295E-1,-1.614113356E0,1.912734995E0
8.917016917E0,7.530364452E-1,-7.280099237E-1,-1.854906959E0,2.130197682E0
8.927072917E0,9.268696350E-1,-5.856004018E-1,-2.015617096E0,2.294499386E0
8.937127917E0,1.044413141E0,-5.341245849E-1,-2.105360162E0,2.410109810E0
8.947183917E0,1.179426301E0,-5.471608061E-1,-2.090336326E0,2.461693991E0
8.957239917E0,1.316307207E0,-5.116300540E-1,-1.981833054E0,2.433534925E0
8.967294917E0,1.371593070E0,-4.471494448E-1,-1.952137969E0,2.427355109E0
8.977350917E0,1.384250099E0,-3.970993254E-1,-1.979050364E0,2.447545006E0
8.987406917E0,1.417878314E0,-3.881115702E-1,-1.955473221E0,2.446402465E0
8.997461917E0,1.432026237E0,-4.298373011E-1,-1.871404293E0,2.395331559E0
9.007517917E0,1.408964818E0,-4.766530332E-1,-1.748644924E0,2.295678341E0
9.017573917E0,1.244003316E0,-4.781551829E-1,-1.573571101E0,2.062111210E0
9.027628917E0,9.570525236E-1,-5.125862199E-1,-1.352833448E0,1.734604423E0
9.037684917E0,7.085468086E-1,-6.005827224E-1,-1.134083848E0,1.465907351E0
9.047740917E0,5.346647946E-1,-6.355441019E-1,-9.943429953E-1,1.295569659E0
9.057795917E0,5.121429644E-1,-5.623834473E-1,-9.401767284E-1,1.209337769E0
9.067851917E0,6.584118314E-1,-4.379932898E-1,-9.086479568E-1,1.204568541E0
9.077907917E0,9.026972455E-1,-2.694202553E-1,-7.313802588E-1,1.192630150E0
9.087962917E0,1.092505028E0,-1.407402880E-1,-3.995215344E-1,1.171747636E0
9.098018917E0,1.353588908E0,-1.295608503E-1,-7.275807381E-2,1.361720487E0
9.108074917E0,1.668960239E0,-1.974025851E-1,2.485996360E-1,1.698881349E0
9.118129917E0,1.875723778E0,-1.977215508E-1,5.478993094E-1,1.964084304E0
9.128185917E0,2.031404871E0,-1.694530405E-1,8.843486828E-1,2.222024454E0
9.138241917E0,2.057353645E0,-2.253378041E-1,1.363812180E0,2.478601381E0
9.148296917E0,1.856712287E0,-4.680310214E-1,1.926531842E0,2.716239771E0
9.158352917E0,1.371414876E0,-7.399569547E-1,2.477351251E0,2.926701946E0
9.168408917E0,7.780161890E-1,-9.732686068E-1,2.917435505E0,3.172379375E0
9.178463917E0,2.048923202E-1,-1.079794936E0,3.087606438E0,3.277384854E0
9.188519917E0,-3.058638308E-1,-9.918232839E-1,2.967260799E0,3.143549389E0
9.198575917E0,-5.999033856E-1,-7.360792275E-1,2.677999041E0,2.841368608E0
9.208630917E0,-6.652654991E-1,-5.117901215E-1,2.312463863E0,2.460080574E0
9.218686917E0,-5.095112057E-1,-3.321589789E-1,2.012423347E0,2.102327040E0
9.228742917E0,-2.090849200E-1,-2.105032718E-1,1.788329977E0,1.812774734E0
9.238797917E0,1.239600582E-1,-1.592056489E-1,1.661530182E0,1.673736861E0
9.248853917E0,4.419677885E-1,-1.414146182E-1,1.596270577E0,1.662351761E0
9.258909917E0,7.593281224E-1,-1.054038097E-1,1.615271689E0,1.787957435E0
9.268964917E0,1.119772642E0,-1.172485144E-1,1.640282570E0,1.989513732E0
9.279020167E0,1.548370479E0,-1.048430617E-1,1.634275725E0,2.253730319E0
9.289076167E0,1.878977607E0,-2.565904409E-2,1.691176735E0,2.528100865E0
9.299131167E0,2.145696595E0,-1.622470781E-2,1.769534102E0,2.781281729E0
9.309187167E0,2.376233304E0,-5.036469966E-2,1.737716478E0,2.944262196E0
9.319243167E0,2.411069407E0,-1.054801159E-1,1.546680926E0,2.866461866E0
9.329298167E0,2.183640785E0,-1.831605220E-1,1.146758273E0,2.473234601E0
9.339354167E0,1.728068718E0,-2.431620178E-1,5.050181687E-1,1.816698273E0
9.349410167E0,1.264916614E0,-2.568747617E-1,-2.194992131E-1,1.309266431E0
9.359465167E0,9.405250762E-1,-2.314623240E-1,-9.196290278E-1,1.335619622E0
9.369521167E0,7.595666888E-1,-1.847758153E-1,-1.522481639E0,1.711442082E0
9.379577167E0,5.518633562E-1,-9.094788462E-2,-2.119364244E0,2.191923694E0
9.389632167E0,4.090799413E-1,1.322654799E-2,-2.639248374E0,2.670796383E0
9.399688167E0,3.996380768E-1,1.599488300E-1,-3.008073195E0,3.038716599E0
9.409744167E0,5.390597080E-1,3.360364138E-1,-3.220518327E0,3.282566700E0
9.419799167E0,6.806771515E-1,4.774868461E-1,-3.249533381E0,3.354218578E0
9.429855167E0,8.734263763E-1,5.624642850E-1,-3.054684860E0,3.226505741E0
9.439911167E0,9.853112398E-1,5.990677088E-1,-2.786355549E0,3.015542671E0
9.449966167E0,1.024380581E0,6.139077960E-1,-2.532012193E0,2.799522120E0
9.460022167E0,1.008554361E0,6.342242391E-1,-2.283527162E0,2.575639451E0
9.470078167E0,9.847244717E-1,6.045196527E-1,-2.021147393E0,2.328124370E0
9.480133167E0,9.733431588E-1,5.574773410E-1,-1.673304135E0,2.014478746E0
9.490189167E0,9.569066356E-1,5.041581894E-1,-1.293417551E0,1.686053009E0
9.500245167E0,8.724610741E-1,4.353914250E-1,-8.921348351E-1,1.321612115E0
9.510300167E0,7.277144200E-1,3.554218340E-1,-5.438887042E-1,9.755551649E-1
9.520356167E0,5.646241003E-1,3.240795887E-1,-1.903923583E-1,6.782899119E-1
9.530412167E0,3.619391406E-1,3.185440296E-1,1.357407725E-1,5.008949966E-1
9.540467167E0,1.440870150E-1,3.430900562E-1,4.180420053E-1,5.596704144E-1
9.550523167E0,-3.868079334E-3,3.467281938E-1,6.408945966E-1,7.286846275E-1
9.560579167E0,-1.102803876E-1,3.757185428E-1,7.461678672E-1,8.426699670E-1
9.570634167E0,-1.358720425E-1,4.815301958E-1,7.843536937E-1,9.303457735E-1
9.580690167E0,-6.481375426E-2,5.664324979E-1,7.575810474E-1,9.481432597E-1
9.590746167E0,5.575809829E-2,6.433489653E-1,6.828203022E-1,9.398140358E-1
9.600801167E0,2.515587656E-1,6.966801037E-1,6.542092913E-1,9.882483374E-1
9.610857167E0,4.271890240E-1,7.294502391E-1,7.681539828E-1,1.142212176E0
9.620913167E0,7.055381969E-1,6.865850320E-1,9.723796839E-1,1.383728804E0
9.630968167E0,9.991529880E-1,6.235481004E-1,1.180804271E0,1.667758272E0
9.641024167E0,1.321917611E0,5.613376728E-1,1.630109584E0,2.172515456E0
9.651080167E0,1.593973791E0,5.338716929E-1,2.185465263E0,2.757177877E0
9.661135167E0,1.731542842E0,6.395146537E-1,2.525829931E0,3.128423956E0
9.671191167E0,1.644332351E0,7.582268724E-1,2.384804446E0,2.994332833E0
9.681247167E0,1.301350761E0,8.254685368E-1,1.786419691E0,2.359281124E0
9.691302167E0,8.861945026E-1,7.903010429E-1,1.160102788E0,1.660046660E0
9.701358167E0,6.915993118E-1,5.966093932E-1,9.065505606E-1,1.286890164E0
9.711413167E0,6.097788578E-1,4.054295611E-1,1.250808890E0,1.449388238E0
9.721469167E0,5.858110477E-1,1.201019557E-1,1.970402917E0,2.059147085E0
9.731525167E0,5.893866201E-1,-2.181309646E-1,2.753763168E0,2.824565328E0
9.741581167E0,4.634238540E-1,-5.616227245E-1,3.345183304E0,3.423511807E0
9.751636167E0,2.252651525E-1,-8.919908474E-1,3.630888786E0,3.745630179E0
9.761692167E0,2.586515844E-2,-1.254291054E0,3.727556709E0,3.933013358E0
9.771747167E0,-1.024424873E-1,-1.451632097E0,3.316108609E0,3.621368044E0
9.781803167E0,-2.319754171E-1,-1.234248406E0,2.261918192E0,2.587171357E0
9.791859167E0,-2.090810828E-1,-7.456767011E-1,1.030072407E0,1.288719444E0
9.801914167E0,-7.303713217E-2,-4.076077951E-1,-1.138745248E-1,4.294717042E-1
9.811970167E0,1.410710943E-1,-1.720619220E-1,-1.078672124E0,1.101380911E0
9.822026167E0,3.860139547E-1,2.745910943E-2,-1.626442210E0,1.671847792E0
9.832081167E0,7.417536579E-1,8.965506524E-2,-1.613871281E0,1.778431059E0
9.842137167E0,1.226728741E0,1.067774668E-2,-1.109583430E0,1.654132040E0
9.852193167E0,1.732559526E0,-2.286850427E-1,-4.116012973E-1,1.795403851E0
9.862248167E0,2.086954004E0,-4.681669691E-1,1.883534342E-1,2.147099053E0
9.872304167E0,2.127243952E0,-7.222888617E-1,7.005929142E-1,2.353231493E0
9.882360167E0,1.888263716E0,-1.076411883E0,1.096929470E0,2.434636865E0
9.892415167E0,1.557178140E0,-1.456983176E0,1.414715701E0,2.559106143E0
9.902471167E0,1.171033646E0,-1.723657433E0,1.429517342E0,2.527020890E0
9.912527167E0,7.548891355E-1,-1.831313005E0,1.159447900E0,2.295187217E0
9.922582167E0,4.427602324E-1,-1.816923008E0,6.677040803E-1,1.985717648E0
9.932638167E0,2.461288219E-1,-1.740907888E0,4.475224972E-2,1.758790049E0
9.942694167E0,1.236331623E-1,-1.623196274E0,-6.201416588E-1,1.742018077E0
9.952749167E0,1.928544015E-1,-1.445778595E0,-1.192472389E0,1.884000787E0
9.962805167E0,3.186633128E-1,-1.204025464E0,-1.755510140E0,2.152449646E0
9.972861167E0,4.961074506E-1,-9.456899218E-1,-2.134368784E0,2.386625680E0
9.982916167E0,7.443732105E-1,-7.676208629E-1,-2.400754480E0,2.628108700E0
9.992972167E0,9.405638871E-1,-6.200637446E-1,-2.563419342E0,2.800046106E0
1.000302817E1,1.034588577E0,-4.754160547E-1,-2.595093125E0,2.833884661E0
1.001308317E1,1.093156627E0,-3.856286962E-1,-2.432804824E0,2.694854395E0
1.002313917E1,1.152377081E0,-3.724883947E-1,-2.008736678E0,2.345579584E0
1.003319517E1,1.263722174E0,-4.545489500E-1,-1.454382627E0,1.979605341E0
1.004325017E1,1.418917218E0,-5.611376980E-1,-9.067318243E-1,1.774926530E0
1.005330617E1,1.586683190E0,-5.947062707E-1,-4.365741706E-1,1.749810304E0
1.006336217E1,1.661629584E0,-5.873327856E-1,-5.504042566E-2,1.763236265E0
1.007341717E1,1.748150981E0,-6.084289549E-1,2.162405598E-1,1.863592666E0
1.008347317E1,1.825858576E0,-6.257658032E-1,3.540489078E-1,1.962318274E0
1.009352917E1,1.827847507E0,-6.105300057E-1,3.882744151E-1,1.965840893E0
1.010358417E1,1.735013895E0,-6.081969666E-1,3.511668152E-1,1.871762511E0
1.011364017E1,1.564864890E0,-5.902078615E-1,2.551777536E-1,1.691822428E0
1.012369617E1,1.405359425E0,-5.191156594E-1,9.847939074E-2,1.501404133E0
1.013375117E1,1.323179879E0,-4.344751664E-1,-1.519843376E-1,1.400954282E0
1.014380717E1,1.319868162E0,-3.604931241E-1,-3.296666032E-1,1.407368938E0
1.015386317E1,1.428363687E0,-2.930741429E-1,-4.268052274E-1,1.519301806E0
1.016391817E1,1.568925196E0,-1.722249131E-1,-3.964418060E-1,1.627376354E0
1.017397417E1,1.831610190E0,-3.771600276E-2,-3.836299717E-1,1.871734581E0
1.018403017E1,2.270275325E0,-1.346533366E-1,-4.014780128E-1,2.309429836E0
1.019408517E1,2.722065412E0,-3.812779292E-1,-1.163794720E-1,2.751101080E0
1.020414117E1,2.838178836E0,-6.566139588E-1,6.068778348E-1,2.975685081E0
1.021419717E1,2.531701705E0,-1.040999537E0,1.561705347E0,3.151526162E0
1.022425217E1,1.943973502E0,-1.456452688E0,2.500876939E0,3.486355241E0
1.023430817E1,1.362176422E0,-1.720954996E0,3.560726876E0,4.182820410E0
1.024436417E1,9.427696031E-1,-2.099986717E0,4.563858236E0,5.111512568E0
1.025441917E1,7.524928004E-1,-2.438888851E0,5.040915604E0,5.650243745E0
1.026447517E1,6.528851894E-1,-2.524842921E0,4.674859439E0,5.353074035E0
1.027453117E1,6.432108980E-1,-2.316880557E0,3.313924089E0,4.094355706E0
1.028458592E1,8.336251102E-1,-1.874777990E0,1.331656002E0,2.446023517E0
1.029464192E1,1.277674507E0,-1.590437395E0,-5.311739337E-1,2.108100805E0
1.030469692E1,1.853574086E0,-1.343661506E0,-2.091082431E0,3.100611048E0
1.031475292E1,2.546145205E0,-9.987272376E-1,-2.910905920E0,3.994206401E0
1.032480892E1,3.066509976E0,-6.480536351E-1,-2.813059782E0,4.211503566E0
1.033486392E1,3.349565792E0,-4.557270178E-1,-2.006447493E0,3.931044346E0
1.034491992E1,3.381133740E0,-5.055685379E-1,-8.212227273E-1,3.515973789E0
1.035497592E1,2.984465062E0,-6.772071214E-1,2.096197575E-1,3.067504138E0
1.036503092E1,2.464755764E0,-8.998003887E-1,1.018565086E0,2.814629025E0
1.037508692E1,1.872536314E0,-1.119574129E0,1.498291708E0,2.646642499E0
1.038514292E1,1.270983539E0,-1.232591159E0,1.569129556E0,2.365765772E0
1.039519792E1,8.058653077E-1,-1.203772426E0,1.201989902E0,1.882356681E0
1.040525392E1,6.041072048E-1,-1.024281178E0,5.348243505E-1,1.303892071E0
1.041530992E1,6.353479278E-1,-7.693590939E-1,-8.487350464E-2,1.001390991E0
1.042536492E1,7.496088805E-1,-5.138900028E-1,-4.749786830E-1,1.025476064E0
1.043542092E1,8.391928290E-1,-3.101136602E-1,-6.395620161E-1,1.099752090E0
1.044547692E1,8.496046735E-1,-2.098900451E-1,-6.839213330E-1,1.110689120E0
1.045553192E1,7.331154931E-1,-1.454225922E-1,-6.982300544E-1,1.022805585E0
1.046558792E1,5.661146652E-1,-1.091932440E-1,-7.646515006E-1,9.576538498E-1
1.047564392E1,4.806606783E-1,-4.540304482E-2,-9.017692924E-1,1.022880238E0
1.048569892E1,4.321734099E-1,8.552371502E-2,-1.060634633E0,1.148492049E0
1.049575492E1,4.783420380E-1,2.077053791E-1,-1.219039214E0,1.325899406E0
1.050581092E1,5.313533702E-1,3.624734299E-1,-1.289810404E0,1.441296038E0
1.051586592E1,5.265370917E-1,4.736729997E-1,-1.329442831E0,1.506328537E0
1.052592192E1,4.510113846E-1,5.334283277E-1,-1.360421380E0,1.529281982E0
1.053597792E1,3.292104473E-1,5.804465197E-1,-1.338136472E0,1.495294920E0
1.054603292E1,1.637048621E-1,5.790056196E-1,-1.254782073E0,1.391590759E0
1.055608892E1,-2.574032038E-2,5.483296645E-1,-1.072760004E0,1.205048552E0
1.056614492E1,-2.080304112E-1,5.049329455E-1,-8.199649912E-1,9.851784195E-1
1.057619992E1,-3.392308208E-1,4.500856242E-1,-5.906740308E-1,8.164253974E-1
1.058625592E1,-4.552502505E-1,4.304237768E-1,-4.358052617E-1,7.631799554E-1
1.059631192E1,-5.738176044E-1,4.547682206E-1,-3.575373566E-1,8.148090200E-1
1.060636692E1,-6.307873189E-1,4.785687272E-1,-2.805903375E-1,8.400307172E-1
1.061642292E1,-5.393599626E-1,5.352136289E-1,-1.661737758E-1,7.778023666E-1
1.062647892E1,-4.277729416E-1,5.631978182E-1,2.630194545E-2,7.077240030E-1
1.063653392E1,-2.386922599E-1,5.700193262E-1,2.795781845E-1,6.782772209E-1
1.064658992E1,1.857441142E-2,5.967810090E-1,5.676330775E-1,8.238324418E-1
1.065664592E1,1.783532336E-1,6.309528682E-1,7.972462195E-1,1.032236859E0
1.066670092E1,1.272007678E-1,5.927610482E-1,8.421259385E-1,1.037652057E0
1.067675692E1,5.881027177E-2,5.211931752E-1,8.141569519E-1,9.684794867E-1
1.068681292E1,8.055906348E-2,5.050886276E-1,6.910157597E-1,8.597133619E-1
1.069686792E1,2.446839749E-1,5.047398412E-1,5.607082200E-1,7.931117594E-1
1.070692392E1,5.334199224E-1,5.637414631E-1,5.351693362E-1,9.427340395E-1
1.071697992E1,8.141793175E-1,7.444591646E-1,5.693486506E-1,1.241477062E0
1.072703492E1,1.084815063E0,9.300532977E-1,5.093170416E-1,1.516979468E0
1.073709092E1,1.202950673E0,1.055629563E0,4.387727237E-1,1.659507637E0
1.074714692E1,1.272940163E0,1.023922890E0,4.096033037E-1,1.684211866E0
1.075720192E1,1.291535625E0,9.052501398E-1,7.653613526E-1,1.753088727E0
1.076725792E1,1.328499237E0,6.330852015E-1,1.588819470E0,2.165653344E0
1.077731392E1,1.401987774E0,1.948856512E-1,2.654130707E0,3.007982703E0
1.078736892E1,1.399528728E0,-2.112900147E-1,3.539566972E0,3.812067481E0
1.079742492E1,1.356603294E0,-6.075477795E-1,4.321730298E0,4.570212202E0
1.080747992E1,1.266916069E0,-1.046808380E0,4.854062566E0,5.124725115E0
1.081753592E1,1.060563955E0,-1.347971927E0,4.779241594E0,5.077693810E0
1.082759192E1,7.086463574E-1,-1.440299023E0,3.871163741E0,4.190769577E0
1.083764692E1,3.747456392E-1,-1.183654057E0,2.255409071E0,2.574556525E0
1.084770292E1,2.707700850E-1,-7.797207986E-1,6.738319623E-1,1.065518876E0
1.085775892E1,1.213624692E-1,-4.105033363E-1,-8.677694875E-1,9.676082480E-1
1.086781392E1,-2.144554049E-2,-3.821740150E-3,-2.185230789E0,2.185339360E0
1.087786992E1,-1.166949293E-1,4.019036901E-1,-3.045459707E0,3.074080206E0
1.088792592E1,-6.879812010E-2,5.984031728E-1,-3.308802513E0,3.363182066E0
1.089798092E1,2.929394377E-1,6.544902501E-1,-2.782681743E0,2.873584640E0
1.090803692E1,9.167314401E-1,4.728010337E-1,-1.476015571E0,1.800710781E0
1.091809292E1,1.480437966E0,1.791784219E-1,-1.481982654E-1,1.498587403E0
1.092814792E1,1.887819182E0,-9.472372413E-2,1.015525119E0,2.145722515E0
1.093820392E1,2.119044693E0,-4.097411518E-1,2.055702683E0,2.980629421E0
1.094825992E1,2.197415802E0,-7.500695680E-1,2.940835478E0,3.746965955E0
1.095831492E1,2.176914002E0,-1.116435197E0,3.594193414E0,4.347828012E0
1.096837092E1,1.992696303E0,-1.487249095E0,3.892291485E0,4.618731583E0
1.097842692E1,1.637064701E0,-1.772833247E0,3.738148940E0,4.449345576E0
1.098848192E1,1.168862648E0,-1.895377585E0,3.045249792E0,3.772564430E0
1.099853792E1,7.946348530E-1,-1.781280135E0,1.971639018E0,2.773402943E0
1.100859392E1,7.189596764E-1,-1.520664179E0,8.660059673E-1,1.891900868E0
1.101864892E1,8.183156379E-1,-1.205544571E0,-2.604110116E-1,1.480132457E0
1.102870492E1,8.541067372E-1,-8.525439227E-1,-1.384142364E0,1.836349516E0
1.103876092E1,8.736235736E-1,-5.268113261E-1,-2.369561924E0,2.579839536E0
1.104881592E1,8.988878576E-1,-3.210903458E-1,-3.144206316E0,3.285898925E0
1.105887192E1,9.649747699E-1,-2.085343681E-1,-3.639612247E0,3.771132482E0
1.106892792E1,1.031108533E0,-1.038414337E-1,-3.817548866E0,3.955710707E0
1.107898292E1,1.151236070E0,-4.726041287E-2,-3.679709528E0,3.855883848E0
1.108903892E1,1.261501109E0,-1.142852917E-2,-3.247287465E0,3.483732415E0
1.109909492E1,1.301974512E0,-2.022858873E-2,-2.617994914E0,2.923943262E0
1.110914992E1,1.259539076E0,-8.662620753E-2,-1.996606044E0,2.362282472E0
1.111920592E1,1.158186363E0,-1.623514509E-1,-1.531092834E0,1.926654850E0
1.112926192E1,9.232173179E-1,-1.981856735E-1,-1.230816091E0,1.551294951E0
1.113931692E1,7.474763279E-1,-2.154001687E-1,-1.035691581E0,1.295289598E0
1.114937292E1,7.290798180E-1,-2.285749689E-1,-9.685941964E-1,1.233684974E0
1.115942892E1,8.007703364E-1,-1.809173839E-1,-1.049075857E0,1.332112753E0
1.116948392E1,8.551908110E-1,-9.118776664E-2,-1.063020882E0,1.367362398E0
1.117953992E1,9.436634231E-1,-4.253337756E-2,-9.107406753E-1,1.312157888E0
1.118959592E1,1.025113091E0,-6.444304079E-2,-6.600734639E-1,1.220945016E0
1.119965092E1,1.079073536E0,-4.246481895E-2,-3.759543318E-1,1.143479171E0
1.120970692E1,1.065726243E0,1.365032494E-3,4.317584038E-3,1.065735863E0
1.121976192E1,1.032447253E0,-3.198558524E-2,3.914319116E-1,1.104621813E0
1.122981792E1,1.081623726E0,-5.738910601E-2,6.906491393E-1,1.284600960E0
1.123987392E1,1.114562626E0,-4.720501050E-2,7.735030156E-1,1.357492201E0
1.124992892E1,1.136754271E0,8.321172595E-3,6.079689252E-1,1.289149227E0
1.125998492E1,1.166720813E0,1.293841182E-1,3.203268456E-1,1.216793735E0
1.127004092E1,1.236317590E0,2.300091447E-1,1.322757125E-1,1.264469159E0
1.128009629E1,1.321632413E0,2.384079391E-1,1.354332089E-1,1.349775068E0
1.129015229E1,1.417074760E0,2.272748405E-1,3.666432256E-1,1.481277146E0
1.130020829E1,1.403526907E0,2.830077226E-1,7.240466809E-1,1.604439076E0
1.131026329E1,1.291237855E0,4.336596259E-1,1.101569821E0,1.751802483E0
1.132031929E1,1.210566160E0,5.703894550E-1,1.163458505E0,1.773259781E0
1.133037529E1,1.231461916E0,4.586058944E-1,9.783251327E-1,1.638272835E0
1.134043029E1,1.240094453E0,2.736707425E-1,9.817428303E-1,1.605163204E0
1.135048629E1,1.298776524E0,1.405949847E-1,1.170580414E0,1.754094044E0
1.136054229E1,1.321248689E0,8.407828331E-2,1.555087468E0,2.042318362E0
1.137059729E1,1.291321616E0,9.514983997E-2,1.917769205E0,2.313958455E0
1.138065329E1,1.370004674E0,-8.741908997E-2,2.426466442E0,2.787883480E0
1.139070929E1,1.483410544E0,-4.837585697E-1,2.947562699E0,3.335064477E0
1.140076429E1,1.496230857E0,-8.024299224E-1,3.365703523E0,3.769689743E0
1.141082029E1,1.385471436E0,-9.892842767E-1,3.546440958E0,3.933885859E0
1.142087629E1,1.152827463E0,-1.089740903E0,3.337869607E0,3.695662310E0
1.143093129E1,8.659248371E-1,-1.047571076E0,2.690219137E0,3.014052088E0
1.144098729E1,5.464402098E-1,-8.973638539E-1,1.880307264E0,2.153929942E0
1.145104329E1,4.310991302E-1,-8.474564065E-1,1.140351478E0,1.484732405E0
1.146109829E1,6.156400336E-1,-9.066599035E-1,6.806702811E-1,1.290099556E0
1.147115429E1,1.009145441E0,-9.315053076E-1,5.134194481E-1,1.466177407E0
1.148121029E1,1.532007631E0,-9.316949035E-1,6.622521365E-1,1.911460349E0
1.149126529E1,2.024343773E0,-1.086629161E0,1.031228986E0,2.518365317E0
1.150132129E1,2.271083264E0,-1.272658766E0,1.396886371E0,2.954449366E0
1.151137729E1,2.226042746E0,-1.422489574E0,1.700584905E0,3.141772098E0
1.152143229E1,2.011884088E0,-1.643456146E0,1.844134634E0,3.185821438E0
1.153148829E1,1.744040680E0,-1.886521831E0,1.720999873E0,3.092326483E0
1.154154429E1,1.439252664E0,-2.006253511E0,1.189617194E0,2.740746331E0
1.155159929E1,1.173356818E0,-1.922875432E0,3.224710196E-1,2.275566679E0
1.156165529E1,9.895994416E-1,-1.776920013E0,-6.122555190E-1,2.124054756E0
1.157171129E1,8.649943990E-1,-1.681684803E0,-1.357904738E0,2.328128941E0
1.158176629E1,6.842772822E-1,-1.568487971E0,-1.982283289E0,2.618747211E0
1.159182229E1,4.551666353E-1,-1.331862848E0,-2.721059107E0,3.063527048E0
1.160187829E1,2.570913280E-1,-1.112631876E0,-3.446474036E0,3.630733937E0
1.161193329E1,1.286975089E-1,-8.402644774E-1,-3.924706110E0,4.015709836E0
1.162198929E1,-1.011151694E-2,-4.911476961E-1,-4.113033231E0,4.142266368E0
1.163204429E1,-9.063228115E-2,-2.808158939E-1,-4.050742258E0,4.061475670E0
1.164210029E1,-1.609201256E-1,-2.123181014E-1,-3.677820293E0,3.687456626E0
1.165215629E1,-1.695155326E-1,-3.053110497E-1,-3.093095219E0,3.112746117E0
1.166221129E1,-1.343120784E-1,-3.930738097E-1,-2.505914900E0,2.540109493E0
1.167226729E1,-1.619001921E-1,-3.445555146E-1,-2.011232269E0,2.046945387E0
1.168232329E1,-1.555460959E-1,-2.423173875E-1,-1.489856515E0,1.517427013E0
1.169237829E1,-1.566765819E-1,-1.801885284E-1,-9.482113874E-1,9.778140377E-1
1.170243429E1,-2.231822281E-1,-1.737481128E-1,-4.212152892E-1,5.073667643E-1
1.171249029E1,-2.988872986E-1,-2.133515967E-1,1.533315361E-2,3.675426869E-1
1.172254529E1,-4.204548588E-1,-1.800822553E-1,2.682176292E-1,5.302382517E-1
1.173260129E1,-6.307278235E-1,-1.164420372E-1,2.437511247E-1,6.861420743E-1
1.174265729E1,-8.637691880E-1,-1.096696459E-1,4.960426927E-2,8.721153736E-1
1.175271229E1,-1.037316668E0,-1.060442260E-1,-1.291948146E-1,1.050696221E0
1.176276829E1,-1.098575900E0,-1.032425326E-1,-1.819624275E-1,1.118319433E0
1.177282429E1,-1.018478913E0,-2.779678613E-2,-1.097522378E-2,1.018917275E0
1.178287929E1,-8.534616432E-1,-7.719347924E-3,2.903066558E-1,9.015177863E-1
1.179293529E1,-6.344685797E-1,-5.152610287E-2,6.662533861E-1,9.214656219E-1
1.180299129E1,-4.019498100E-1,-7.710635573E-2,1.021454195E0,1.100398888E0
1.181304629E1,-1.969530804E-1,-9.734620035E-2,1.301261591E0,1.319677433E0
1.182310229E1,4.830662593E-2,-1.723306015E-1,1.630857443E0,1.640648459E0
1.183315829E1,3.221524195E-1,-1.771647871E-1,1.844177318E0,1.880467900E0
1.184321329E1,5.301678472E-1,-4.863743216E-2,1.977765731E0,2.048170118E0
1.185326929E1,7.635256192E-1,4.874224350E-2,2.076172031E0,2.212653945E0
1.186332529E1,1.030722251E0,1.464012699E-1,2.059379997E0,2.307567478E0
1.187338029E1,1.294301504E0,2.732788329E-1,1.872181388E0,2.292370139E0
1.188343629E1,1.502807513E0,4.515857273E-1,1.609894590E0,2.248137158E0
1.189349229E1,1.611014185E0,7.097693883E-1,1.306396031E0,2.192215747E0
1.190354729E1,1.464708517E0,1.087330243E0,7.824913555E-1,1.984930936E0
1.191360329E1,1.114146816E0,1.416593973E0,-3.560486555E-2,1.802589614E0
1.192365929E1,8.064318299E-1,1.576926526E0,-7.958563364E-1,1.941756131E0
1.193371429E1,6.936249335E-1,1.564251371E0,-1.241131749E0,2.113860430E0
1.194377029E1,7.770087869E-1,1.582263572E0,-1.273675597E0,2.174752904E0
1.195382629E1,9.629711484E-1,1.342114917E0,-4.674053693E-1,1.716698477E0
1.196388129E1,1.100819550E0,6.966473593E-1,9.338289911E-1,1.602859260E0
1.197393729E1,1.040686126E0,2.505210310E-2,2.157915521E0,2.395882847E0
1.198399229E1,8.815608765E-1,-5.041482492E-1,3.288327318E0,3.441571093E0
1.199404829E1,5.974678376E-1,-1.036803283E0,4.052417486E0,4.225401323E0
1.200410429E1,1.610579006E-1,-1.333103627E0,4.144165562E0,4.356284326E0
1.201415929E1,-2.440371998E-1,-1.349955010E0,3.469964055E0,3.731297794E0
1.202421529E1,-3.995618071E-1,-1.083246401E0,2.091953081E0,2.389422545E0
1.203427129E1,-2.322969409E-1,-6.517674941E-1,7.480220193E-1,1.018969909E0
1.204432629E1,-3.979680754E-2,-2.809825395E-1,-4.663727510E-1,5.459290396E-1
1.205438229E1,1.104013518E-1,7.843104243E-2,-1.442263688E0,1.448607756E0
1.206443829E1,3.399980485E-1,3.038590398E-1,-1.993829786E0,2.045308340E0
1.207449329E1,6.106268867E-1,3.411097504E-1,-2.013404510E0,2.131435849E0
1.208454929E1,9.267328101E-1,1.728235218E-1,-1.564782736E0,1.826813259E0
1.209460529E1,1.313891284E0,-1.472616877E-1,-9.452638060E-1,1.625275353E0
1.210466029E1,1.594575177E0,-4.449549848E-1,-3.300150973E-1,1.688065431E0
1.211471629E1,1.704932309E0,-7.227035755E-1,2.845278525E-1,1.873512940E0
1.212477229E1,1.678427173E0,-1.030930924E0,9.681094623E-1,2.194805749E0
1.213482729E1,1.624192201E0,-1.385757950E0,1.852282729E0,2.826530861E0
1.214488329E1,1.494014470E0,-1.769581465E0,2.564778820E0,3.455660312E0
1.215493929E1,1.317588771E0,-2.031486001E0,2.911828026E0,3.787046077E0
1.216499429E1,1.008295914E0,-2.145015394E0,2.727649503E0,3.613561056E0
1.217505029E1,7.075084162E-1,-2.073983711E0,1.895512363E0,2.897402925E0
1.218510629E1,5.460377021E-1,-1.861142430E0,7.666044706E-1,2.085591218E0
1.219516129E1,5.106894562E-1,-1.619580941E0,-3.548786277E-1,1.734873190E0
1.220521729E1,5.082728020E-1,-1.397377683E0,-1.288806437E0,1.967746849E0
1.221527329E1,5.127227524E-1,-1.097811523E0,-2.192218797E0,2.504775042E0
1.222532829E1,5.473805152E-1,-7.967622162E-1,-2.927526045E0,3.082995979E0
1.223538429E1,5.618065464E-1,-5.385596980E-1,-3.474729536E0,3.560817110E0
1.224544029E1,6.081816908E-1,-3.108295056E-1,-3.841067537E0,3.901320260E0
1.225549529E1,6.158883941E-1,-4.215754777E-2,-3.948206654E0,3.996177118E0
1.226555129E1,6.777585138E-1,2.605329260E-1,-3.700770029E0,3.771330378E0
1.227560729E1,8.312506291E-1,4.299428433E-1,-3.207293095E0,3.341041373E0
1.228566233E1,9.815527958E-1,4.890562932E-1,-2.560734885E0,2.785674981E0
1.229571833E1,1.062247515E0,5.146521874E-1,-1.912926541E0,2.247782153E0
1.230577433E1,1.060535084E0,5.268627816E-1,-1.384704866E0,1.822011697E0
1.231582933E1,9.633708056E-1,5.523347148E-1,-9.454602724E-1,1.458441659E0
1.232588533E1,8.732151456E-1,5.538878815E-1,-4.596122003E-1,1.131609407E0
1.233594033E1,7.465863816E-1,5.266644149E-1,-1.187183583E-1,9.213363554E-1
1.234599633E1,5.288358880E-1,5.139302024E-1,-3.161998808E-2,7.380999072E-1
1.235605233E1,2.887896688E-1,5.445680045E-1,-1.239270580E-1,6.287381808E-1
1.236610733E1,1.317284862E-1,5.902837291E-1,-3.388104790E-1,6.932386427E-1
1.237616333E1,8.402295403E-2,6.561214770E-1,-4.872484803E-1,8.215633457E-1
1.238621933E1,1.736942818E-1,7.602878697E-1,-4.275735515E-1,8.893967002E-1
1.239627433E1,2.717361181E-1,7.779064076E-1,-2.135677975E-1,8.512285833E-1
1.240633033E1,3.847072847E-1,7.140523276E-1,1.243714464E-1,8.205721651E-1
1.241638633E1,4.978612133E-1,6.427601507E-1,4.727070397E-1,9.404564554E-1
1.242644133E1,5.454858711E-1,5.745371774E-1,7.706554216E-1,1.105240961E0
1.243649733E1,5.862069042E-1,4.991004941E-1,1.036252913E0,1.290953112E0
1.244655333E1,6.855452509E-1,4.542529348E-1,1.451024571E0,1.667869997E0
1.245660833E1,7.510282921E-1,4.345342232E-1,1.862835199E0,2.054998410E0
1.246666433E1,7.051104730E-1,5.140892467E-1,1.919196510E0,2.108265585E0
1.247672033E1,6.580067655E-1,5.032103558E-1,1.583392670E0,1.786987944E0
1.248677533E1,6.821000715E-1,3.501401903E-1,1.250494895E0,1.466832009E0
1.249683133E1,8.739955296E-1,1.707987772E-1,1.303416874E0,1.578586696E0
1.250688733E1,1.097790911E0,5.660426348E-2,1.740445374E0,2.058518649E0
1.251694233E1,1.085998174E0,6.421587646E-2,2.223256987E0,2.475154004E0
1.252699833E1,9.433328361E-1,-6.700032055E-3,2.604122980E0,2.769725297E0
1.253705433E1,7.929541440E-1,-3.284031661E-1,3.063104850E0,3.181074698E0
1.254710933E1,7.150907931E-1,-7.403497414E-1,3.563504888E0,3.709183154E0
1.255716533E1,6.503021087E-1,-1.108430359E0,4.114107365E0,4.310149661E0
1.256722133E1,6.115645974E-1,-1.458280527E0,4.609711516E0,4.873400622E0
1.257727633E1,5.930678809E-1,-1.694027837E0,4.867447427E0,5.187822691E0
1.258733233E1,4.932328132E-1,-1.801633269E0,4.662018954E0,5.022308410E0
1.259738833E1,3.285135323E-1,-1.758344432E0,3.676331592E0,4.088411703E0
1.260744333E1,1.984217183E-1,-1.559933640E0,2.182500724E0,2.689995084E0
1.261749933E1,1.819185003E-1,-1.391478281E0,8.230336100E-1,1.626865228E0
1.262755433E1,2.111253059E-1,-1.260056116E0,-4.545935351E-1,1.356086499E0
1.263761033E1,2.272336541E-1,-1.049358278E0,-1.723045229E0,2.030190334E0
1.264766633E1,2.403801318E-1,-7.718184328E-1,-2.811791521E0,2.925689297E0
1.265772233E1,3.765095249E-1,-4.986562519E-1,-3.669495027E0,3.722312619E0
1.266777733E1,5.376855393E-1,-1.791063550E-1,-4.230493269E0,4.268285150E0
1.267783333E1,7.016367153E-1,8.834879726E-2,-4.473222300E0,4.528776583E0
1.268788833E1,7.912919998E-1,2.685890736E-1,-4.369825986E0,4.449006886E0
1.269794433E1,8.438435581E-1,2.864879854E-1,-4.025378206E0,4.122840892E0
1.270800033E1,7.827205664E-1,2.328617088E-1,-3.519082421E0,3.612591472E0
1.271805533E1,6.333765391E-1,1.268597290E-1,-2.968350720E0,3.037822449E0
1.272811133E1,4.207751401E-1,3.595482141E-2,-2.313001807E0,2.351238360E0
1.273816733E1,2.098465564E-1,-3.805060968E-2,-1.646415129E0,1.660170535E0
1.274822233E1,-3.438985068E-2,-1.062130643E-1,-1.205220489E0,1.210380231E0
1.275827833E1,-2.866140294E-1,-1.928878038E-1,-7.329508209E-1,8.102902027E-1
1.276833433E1,-5.357836958E-1,-2.747552548E-1,-3.306249619E-1,6.869261126E-1
1.277838933E1,-7.806106717E-1,-2.354936868E-1,-4.801616549E-2,8.167716018E-1
1.278844533E1,-1.077133576E0,-1.399542761E-1,8.840639234E-2,1.089779624E0
1.279850133E1,-1.326117520E0,3.079289943E-2,1.090265983E-1,1.330948037E0
1.280855633E1,-1.442407676E0,2.503112622E-1,1.161993778E-1,1.468570028E0
1.281861233E1,-1.403482615E0,4.208760045E-1,8.235160053E-2,1.467542792E0
1.282866833E1,-1.308617973E0,6.011184736E-1,3.121536076E-2,1.440416196E0
1.283872333E1,-1.132635127E0,7.898111925E-1,-9.443545640E-2,1.384045558E0
1.284877933E1,-8.809912846E-1,9.798283057E-1,-2.269766325E-1,1.337059290E0
1.285883533E1,-6.420245710E-1,1.155128123E0,-2.844880915E-1,1.351832092E0
1.286889033E1,-3.795516119E-1,1.269402890E0,-3.662912232E-1,1.374631727E0
1.287894633E1,-1.133067236E-1,1.347971488E0,-2.254364759E-1,1.371381476E0
1.288900233E1,1.214240477E-1,1.371980448E0,-1.570433486E-1,1.386267205E0
1.289905733E1,2.141961540E-1,1.367569601E0,-2.975121796E-2,1.384561931E0
1.290911333E1,1.862411276E-1,1.284694528E0,1.355349505E-1,1.305180260E0
1.291916933E1,8.415645327E-2,1.201602232E0,3.984111482E-1,1.268724428E0
1.292922433E1,-8.474541407E-2,1.092977337E0,6.297281688E-1,1.264254251E0
1.293928033E1,-2.986302769E-1,9.646107808E-1,6.369085497E-1,1.193862011E0
1.294933633E1,-3.958768918E-1,8.878489722E-1,5.653696203E-1,1.124560856E0
1.295939133E1,-2.846419098E-1,8.903372549E-1,4.841441935E-1,1.052671385E0
1.296944733E1,-4.649062693E-2,9.403629622E-1,2.822094315E-1,9.828967607E-1
1.297950233E1,1.719945693E-1,1.070426088E0,1.722180426E-1,1.097749150E0
1.298955833E1,2.332590637E-1,1.223543762E0,2.710418344E-1,1.274728522E0
1.299961433E1,-1.023760483E-1,1.249847901E0,4.269613481E-1,1.324725112E0
1.300966933E1,-5.223891500E-1,1.227658156E0,6.311297464E-1,1.475926735E0
1.301972533E1,-8.998137642E-1,1.167133919E0,9.491065961E-1,1.752903228E0
1.302978133E1,-1.162298272E0,1.037211857E0,1.223048065E0,1.980553528E0
1.303983633E1,-1.212872448E0,8.952209955E-1,1.301172713E0,1.991364014E0
1.304989233E1,-1.225272492E0,8.402504441E-1,1.255826971E0,1.945357260E0
1.305994833E1,-1.022852045E0,7.127100992E-1,1.207899098E0,1.735857778E0
1.307000333E1,-8.607830881E-1,5.312401535E-1,1.242665473E0,1.602304935E0
1.308005933E1,-7.533124338E-1,3.440932922E-1,1.417487866E0,1.641691709E0
1.309011533E1,-5.745405030E-1,1.780570722E-1,1.787604337E0,1.886088645E0
1.310017033E1,-4.128384950E-1,9.615292981E-2,2.144583870E0,2.186074331E0
1.311022633E1,-2.751730932E-1,-6.786643937E-2,2.315357650E0,2.332639520E0
1.312028233E1,-1.778511040E-1,-3.208042708E-1,2.514301561E0,2.540916908E0
1.313033733E1,-1.007622442E-1,-6.102582563E-1,2.792154232E0,2.859841504E0
1.314039333E1,-1.222724421E-1,-8.789781614E-1,3.070385803E0,3.196063538E0
1.315044933E1,-2.483609234E-1,-1.077307384E0,3.162561311E0,3.350234080E0
1.316050433E1,-5.625333553E-1,-1.251692259E0,2.755518503E0,3.078320890E0
1.317056033E1,-1.056536174E0,-1.244137656E0,1.686193737E0,2.346784292E0
1.318061633E1,-1.445636069E0,-1.026004499E0,4.214597028E-1,1.822135329E0
1.319067133E1,-1.664162306E0,-8.603726135E-1,-7.182240236E-1,2.006370595E0
1.320072733E1,-1.763174232E0,-6.801226893E-1,-1.789012347E0,2.602290418E0
1.321078333E1,-1.796985902E0,-4.140004098E-1,-2.624320432E0,3.207430810E0
1.322083833E1,-1.778838630E0,-1.789772777E-1,-3.136167564E0,3.609964920E0
1.323089433E1,-1.618275696E0,-5.694120929E-2,-3.282977700E0,3.660601195E0
1.324094933E1,-1.377983931E0,-2.854610682E-3,-2.985035166E0,3.287747375E0
1.325100533E1,-9.761305996E-1,-1.059768368E-1,-2.290244443E0,2.491843022E0
1.326106133E1,-5.465757190E-1,-3.221903533E-1,-1.478970169E0,1.609317992E0
1.327111633E1,-2.805368720E-1,-4.588811521E-1,-8.139096147E-1,9.755622529E-1
1.328117233E1,-1.372837431E-1,-6.010063532E-1,-2.001384974E-1,6.481596106E-1
1.329122854E1,5.238191597E-4,-8.656260444E-1,4.492906952E-1,9.752798839E-1
1.330128354E1,-4.148579406E-2,-1.090696777E0,1.056690686E0,1.519189171E0
1.331133954E1,-1.208925723E-1,-1.260028488E0,1.505313045E0,1.966787779E0
1.332139554E1,-1.698223653E-1,-1.385695677E0,1.678744385E0,2.183386098E0
1.333145054E1,-2.266503213E-1,-1.412595500E0,1.459441053E0,2.043713435E0
1.334150654E1,-3.153954136E-1,-1.260006122E0,7.324508840E-1,1.491165314E0
1.335156254E1,-3.744521821E-1,-9.785169214E-1,-2.696952206E-1,1.081871210E0
1.336161754E1,-2.964254198E-1,-7.479959992E-1,-1.181635160E0,1.429555069E0
1.337167354E1,-1.991229274E-1,-5.937432343E-1,-1.840428668E0,1.944057265E0
1.338172954E1,-2.036998537E-1,-4.271301864E-1,-2.545288880E0,2.588905041E0
1.339178454E1,-2.482534625E-1,-1.894752225E-1,-3.070451292E0,3.086292562E0
1.340184054E1,-2.761538175E-1,-6.303152293E-3,-3.363310842E0,3.374634866E0
1.341189654E1,-2.928700386E-1,1.229419483E-1,-3.443939268E0,3.458555372E0
1.342195154E1,-2.917775229E-1,2.331166475E-1,-3.335565219E0,3.356407726E0
1.343200754E1,-3.056248807E-1,2.933894540E-1,-3.016472721E0,3.046078071E0
1.344206354E1,-3.019477312E-1,2.361155382E-1,-2.518448406E0,2.547450756E0
1.345211854E1,-2.884314902E-1,1.542232364E-1,-1.970643237E0,1.997601637E0
1.346217454E1,-3.220610567E-1,8.233961374E-2,-1.462138374E0,1.499450486E0
1.347223054E1,-3.210212390E-1,1.298330382E-2,-1.056192504E0,1.103977267E0
1.348228554E1,-3.206448611E-1,-1.883388162E-2,-7.210575843E-1,7.893616927E-1
1.349234154E1,-2.621502476E-1,-4.947153747E-2,-3.659900916E-1,4.529005768E-1
1.350239754E1,-1.669045498E-1,-7.891007558E-2,-4.722152889E-2,1.905618051E-1
1.351245254E1,-1.154815407E-1,-4.921060547E-2,3.153344929E-2,1.294296270E-1
1.352250854E1,-1.588423724E-1,7.143280238E-2,1.687272549E-2,1.749806657E-1
1.353256354E1,-1.223041450E-1,1.403882857E-1,2.281349659E-2,1.875836620E-1
1.354261954E1,-3.309180535E-2,1.528851011E-1,2.717622113E-1,3.135659759E-1
1.355267554E1,5.039408192E-2,1.676047356E-1,6.378517056E-1,6.614270248E-1
1.356273054E1,1.727383717E-1,1.949467546E-1,9.706787288E-1,1.005017401E0
1.357278654E1,4.459326027E-1,1.607655399E-1,1.470652505E0,1.545160262E0
1.358284254E1,6.821733078E-1,1.248437552E-1,1.970178384E0,2.088671647E0
1.359289754E1,8.011714554E-1,1.748479740E-1,2.440796798E0,2.574866312E0
1.360295354E1,7.871319252E-1,3.585670513E-1,2.731335588E0,2.865020260E0
1.361300954E1,7.915828257E-1,3.926450627E-1,2.555089983E0,2.703564007E0
1.362306454E1,7.147452226E-1,3.016020146E-1,2.052343458E0,2.194068864E0
1.363312054E1,5.282259503E-1,2.845550421E-1,1.616173330E0,1.723951989E0
1.364317654E1,4.482001164E-1,2.020207161E-1,1.401485206E0,1.485212610E0
1.365323154E1,3.615145596E-1,1.088478197E-1,1.552588953E0,1.597833872E0
1.366328754E1,1.650206318E-1,6.642568544E-2,1.871210166E0,1.879646686E0
1.367334354E1,-1.385509991E-1,3.676963091E-2,1.924259614E0,1.929591524E0
1.368339854E1,-5.022537148E-1,-4.040886484E-2,1.661027321E0,1.735771711E0
1.369345454E1,-7.411284444E-1,-1.148999072E-1,1.332741246E0,1.529271914E0
1.370351054E1,-8.171867598E-1,-1.716168758E-1,1.179331942E0,1.445015703E0
1.371356554E1,-8.047618651E-1,-1.449268214E-1,1.132050186E0,1.396489552E0
1.372362154E1,-7.425806735E-1,-7.695600919E-2,1.062353715E0,1.298438947E0
1.373367754E1,-6.906423419E-1,-2.288402863E-2,8.694511467E-1,1.110610562E0
1.374373254E1,-6.737074167E-1,1.066751406E-2,6.084431344E-1,9.078538026E-1
1.375378854E1,-6.680945282E-1,1.965541542E-3,3.282240951E-1,7.443690070E-1
1.376384454E1,-6.088319743E-1,-4.237550274E-3,5.800204039E-2,6.116032753E-1
1.377389954E1,-4.345230770E-1,5.745305993E-2,-9.087625623E-2,4.476266887E-1
1.378395554E1,-1.536344218E-1,1.125632867E-1,-3.822792649E-2,1.942560255E-1
1.379401154E1,2.645467655E-1,7.670450583E-2,1.694850540E-1,3.234095791E-1
1.380406654E1,7.284169630E-1,-1.514750451E-2,4.021925426E-1,8.322136505E-1
1.381412254E1,1.026431857E0,-1.227993494E-1,5.885959303E-1,1.189574380E0
1.382417754E1,1.183184672E0,-2.068490544E-1,8.152299160E-1,1.451658471E0
1.383423354E1,1.163070689E0,-3.155059625E-1,1.106145852E0,1.635798302E0
1.384428954E1,9.920624350E-1,-5.135640205E-1,1.429544240E0,1.814258143E0
1.385434454E1,7.785703589E-1,-6.741142367E-1,1.583431261E0,1.888877012E0
1.386440054E1,4.859737873E-1,-7.729991318E-1,1.423033950E0,1.690776095E0
1.387445654E1,1.255407799E-1,-8.032480940E-1,1.021139030E0,1.305255878E0
1.388451154E1,-1.716714376E-1,-7.301698852E-1,2.607279307E-1,7.941021329E-1
1.389456754E1,-3.470752626E-1,-5.261502984E-1,-5.876521897E-1,8.617601003E-1
1.390462354E1,-4.806828246E-1,-3.328656149E-1,-1.304937150E0,1.429935824E0
1.391467854E1,-5.815770423E-1,-2.242778501E-1,-1.911687516E0,2.010741547E0
1.392473454E1,-7.122149131E-1,-8.504175827E-2,-2.533118486E0,2.632711805E0
1.393479054E1,-7.447238973E-1,9.869573772E-2,-3.061957626E0,3.152766886E0
1.394484554E1,-6.828511463E-1,2.940608606E-1,-3.439336340E0,3.518777051E0
1.395490154E1,-5.915698242E-1,5.129104480E-1,-3.629858506E0,3.713341455E0
1.396495754E1,-4.977614817E-1,6.899239384E-1,-3.653084232E0,3.750838031E0
1.397501254E1,-3.986663061E-1,8.245424840E-1,-3.432280505E0,3.552373093E0
1.398506854E1,-3.379114331E-1,8.648657602E-1,-3.056487556E0,3.194415925E0
1.399512454E1,-3.110731152E-1,8.160558352E-1,-2.669448658E0,2.808677579E0
1.400517954E1,-2.953010367E-1,8.159330437E-1,-2.235787570E0,2.398269270E0
1.401523554E1,-3.916229694E-1,8.322885829E-1,-1.783117184E0,2.006384741E0
1.402529154E1,-4.846221669E-1,8.161757031E-1,-1.368486444E0,1.665459868E0
1.403534654E1,-5.955701237E-1,7.891052873E-1,-1.043377746E0,1.437368445E0
1.404540254E1,-6.836965806E-1,7.665069683E-1,-7.959960848E-1,1.299455160E0
1.405545854E1,-7.374954231E-1,7.363153088E-1,-6.504214650E-1,1.228457494E0
1.406551354E1,-8.333439323E-1,7.227810511E-1,-5.623869556E-1,1.238205817E0
1.407556954E1,-9.486082672E-1,6.854613434E-1,-4.547765529E-1,1.255602091E0
1.408562454E1,-1.099768001E0,6.923550645E-1,-3.203274304E-1,1.338452410E0
1.409568054E1,-1.310847370E0,6.711271866E-1,-2.704951197E-1,1.497297612E0
1.410573654E1,-1.505831547E0,6.932156284E-1,-2.717148489E-1,1.679852825E0
1.411579154E1,-1.659004331E0,7.297386530E-1,-2.556595641E-1,1.830348514E0
1.412584754E1,-1.649902263E0,7.507402436E-1,-1.578069949E-1,1.819530554E0
1.413590354E1,-1.451152333E0,7.300424159E-1,8.296146512E-2,1.626556985E0
1.414595854E1,-1.126220659E0,6.744289631E-1,4.021814328E-1,1.372944756E0
1.415601454E1,-7.878156108E-1,6.366305146E-1,8.024356234E-1,1.292228609E0
1.416607054E1,-4.770168031E-1,4.809229624E-1,1.586302244E0,1.724872962E0
1.417612554E1,-1.943116008E-1,3.640176795E-1,2.522495849E0,2.556022531E0
1.418618154E1,-1.214852059E-1,4.338201320E-1,3.465978593E0,3.495134643E0
1.419623754E1,-1.516788571E-1,3.873764290E-1,4.051141039E0,4.072445296E0
1.420629254E1,-2.126028791E-1,1.821441297E-1,4.160671667E0,4.170079758E0
1.421634854E1,-3.885409385E-1,1.723035581E-2,3.961720154E0,3.980764691E0
1.422640454E1,-4.510470891E-1,-7.362536207E-2,3.653319290E0,3.681793857E0
1.423645954E1,-4.162214016E-1,-5.144387640E-2,3.375767165E0,3.401718784E0
1.424651554E1,-4.398551895E-1,1.060091427E-1,3.106407575E0,3.139184376E0
1.425657154E1,-6.042922326E-1,2.909521153E-1,2.605643840E0,2.690576529E0
1.426662654E1,-8.825227435E-1,3.282362281E-1,1.858701217E0,2.083592002E0
1.427668254E1,-1.111209248E0,1.498281768E-1,1.257110435E0,1.684506195E0
1.428673779E1,-1.201957743E0,-9.491858259E-2,1.056414698E0,1.603035859E0
1.429679279E1,-1.181146479E0,-3.122049169E-1,1.249802000E0,1.747736809E0
1.430684879E1,-1.195911356E0,-4.474365431E-1,1.491617112E0,1.963498164E0
1.431690379E1,-1.282537344E0,-4.422797374E-1,1.350870538E0,1.914514198E0
1.432695979E1,-1.426448870E0,-3.333313456E-1,6.981277281E-1,1.622728717E0
1.433701579E1,-1.613064219E0,-2.933295201E-1,-2.313000637E-1,1.655753032E0
1.434707079E1,-1.906800998E0,-2.900280359E-1,-1.250959749E0,2.298892472E0
1.435712679E1,-2.148426514E0,-2.101351896E-1,-2.053632184E0,2.979479557E0
1.436718279E1,-2.227872340E0,-1.894297604E-1,-2.347751809E0,3.242103847E0
1.437723779E1,-2.091091933E0,-1.716197263E-1,-1.969986010E0,2.878013843E0
1.438729379E1,-1.799317772E0,-2.414604780E-1,-1.052736214E0,2.098595041E0
1.439734979E1,-1.413527693E0,-4.266811202E-1,-1.443934822E-1,1.483565568E0
1.440740479E1,-1.164829824E0,-5.952763742E-1,4.190617597E-1,1.373606653E0
1.441746079E1,-9.809448315E-1,-7.285849974E-1,8.234470081E-1,1.473483572E0
1.442751679E1,-7.031362338E-1,-9.478979766E-1,1.291755772E0,1.749726868E0
1.443757179E1,-4.776881365E-1,-1.157361760E0,1.631271425E0,2.056384853E0
1.444762779E1,-3.506381903E-1,-1.252461606E0,1.719179050E0,2.155732781E0
1.445768379E1,-3.414818892E-1,-1.285446627E0,1.503615013E0,2.007446392E0
1.446773879E1,-4.360384925E-1,-1.272738580E0,8.606013858E-1,1.597068504E0
1.447779479E1,-5.800040682E-1,-1.144494377E0,-8.542782068E-4,1.283071638E0
1.448785079E1,-6.826608194E-1,-1.011032264E0,-8.732991993E-1,1.500287814E0
1.449790579E1,-6.713814674E-1,-9.150521198E-1,-1.559250101E0,1.928557579E0
1.450796179E1,-6.070337362E-1,-7.874036014E-1,-2.197294765E0,2.411762565E0
1.451801779E1,-5.395709009E-1,-5.273156485E-1,-2.860041575E0,2.957877003E0
1.452807279E1,-4.545098833E-1,-2.923863642E-1,-3.341969674E0,3.385384812E0
1.453812879E1,-3.621585573E-1,-1.317235892E-1,-3.637486784E0,3.657843631E0
1.454818479E1,-3.246244761E-1,4.928939670E-2,-3.678610252E0,3.693234880E0
1.455823979E1,-2.381293558E-1,1.464299212E-1,-3.467009457E0,3.478261331E0
1.456829579E1,-1.506151024E-1,1.230050983E-1,-3.045212955E0,3.051415590E0
1.457835079E1,-1.267119406E-1,4.236015379E-2,-2.513675324E0,2.517223457E0
1.458840679E1,-1.882502308E-1,-7.469262511E-2,-1.995547698E0,2.005798533E0
1.459846279E1,-3.662372826E-1,-1.777863461E-1,-1.527060594E0,1.580396086E0
1.460851779E1,-5.364453448E-1,-2.589204101E-1,-1.100307992E0,1.251195853E0
1.461857379E1,-6.823200729E-1,-3.087227538E-1,-7.886128056E-1,1.087557161E0
1.462862979E1,-8.485694240E-1,-3.138408217E-1,-6.367471665E-1,1.106351247E0
1.463868479E1,-9.249386651E-1,-2.698090951E-1,-6.190289336E-1,1.145209720E0
1.464874079E1,-9.446677554E-1,-1.708594421E-1,-6.343574095E-1,1.150651746E0
1.465879679E1,-8.715622839E-1,-1.557541837E-1,-5.648001015E-1,1.050180620E0
1.466885179E1,-6.649947730E-1,-2.307078870E-1,-3.760052025E-1,7.980125873E-1
1.467890779E1,-4.992186078E-1,-3.241300209E-1,-8.285796940E-2,6.009533526E-1
1.468896379E1,-5.534421775E-1,-4.021307082E-1,5.241666305E-1,8.618340947E-1
1.469901879E1,-6.754685249E-1,-6.242407031E-1,1.712117953E0,1.943523107E0
1.470907479E1,-5.888550351E-1,-1.009319615E0,3.110579563E0,3.322827344E0
1.471913079E1,-4.315511931E-1,-1.351959874E0,4.305460421E0,4.533323435E0
1.472918579E1,-4.777561104E-1,-1.415208913E0,5.010003129E0,5.227924877E0
1.473924179E1,-5.789029279E-1,-1.132950950E0,4.957965834E0,5.118606418E0
1.474929779E1,-5.334346866E-1,-8.540615675E-1,3.929759858E0,4.056721123E0
1.475935279E1,-3.992375790E-1,-4.066915365E-1,2.550563654E0,2.613458169E0
1.476940879E1,-2.879094435E-1,8.769654036E-2,1.681946320E0,1.708662036E0
1.477946479E1,-1.571439207E-4,2.325959529E-1,1.554346041E0,1.571652798E0
1.478951979E1,3.817973082E-1,1.381248285E-1,2.050432588E0,2.090244352E0
1.479957579E1,5.863932111E-1,-3.022338063E-2,2.867314927E0,2.926818297E0
1.480963079E1,6.031555704E-1,-2.282144880E-1,3.635377108E0,3.692132882E0
1.481968679E1,3.443629950E-1,-4.888571224E-1,3.903117605E0,3.948657265E0
1.482974279E1,-1.091542138E-1,-7.426449198E-1,3.815067893E0,3.888210275E0
1.483979779E1,-6.129351848E-1,-8.234649883E-1,2.977520324E0,3.149509709E0
1.484985379E1,-1.071418507E0,-6.036500256E-1,1.586518006E0,2.007329160E0
1.485990979E1,-1.452107183E0,-3.618447080E-1,2.088672209E-1,1.511017002E0
1.486996479E1,-1.662382121E0,-1.412089424E-1,-1.121877201E0,2.010488183E0
1.488002079E1,-1.768443158E0,1.592147121E-1,-2.361365882E0,2.954452463E0
1.489007679E1,-1.671454222E0,5.053016125E-1,-3.131597380E0,3.585525218E0
1.490013179E1,-1.230319954E0,6.730763559E-1,-3.388742137E0,3.667464007E0
1.491018779E1,-6.732209283E-1,7.583286139E-1,-3.073217610E0,3.236194552E0
1.492024379E1,-1.309796771E-1,7.976011455E-1,-2.173286682E0,2.318727725E0
1.493029879E1,2.402512007E-1,6.166888779E-1,-1.226028391E0,1.393259282E0
1.494035479E1,5.096650971E-1,4.802932173E-1,-4.720644307E-1,8.445619649E-1
1.495041079E1,6.452078683E-1,3.383019175E-1,2.080515343E-1,7.576455778E-1
1.496046579E1,6.180597576E-1,1.836366315E-1,6.681572396E-1,9.285226832E-1
1.497052179E1,4.141388427E-1,2.604291379E-2,8.720449716E-1,9.657389124E-1
1.498057779E1,-3.338058472E-2,-1.431040250E-1,7.491908777E-1,7.634657796E-1
1.499063279E1,-5.447388162E-1,-2.055879562E-1,2.273420835E-1,6.250529646E-1
1.500068879E1,-9.274552336E-1,-1.334697139E-1,-4.612283707E-1,1.044374925E0
1.501074479E1,-1.164670195E0,-3.025480941E-2,-1.129518927E0,1.622709161E0
1.502079979E1,-1.374147865E0,9.536033973E-2,-1.671393265E0,2.165855811E0
1.503085579E1,-1.546439436E0,2.009626624E-1,-2.055643042E0,2.580218835E0
1.504091079E1,-1.665949361E0,3.321123473E-1,-2.466491218E0,2.994873088E0
1.505096679E1,-1.726608230E0,4.696208793E-1,-2.743879620E0,3.275758709E0
1.506102279E1,-1.686898473E0,6.034259310E-1,-2.841687750E0,3.359306265E0
1.507107779E1,-1.588756174E0,6.873920940E-1,-2.736084112E0,3.237716841E0
1.508113379E1,-1.451383298E0,7.001255755E-1,-2.467882270E0,2.947394137E0
1.509118979E1,-1.282210631E0,7.306268451E-1,-2.033866256E0,2.512865225E0
1.510124479E1,-1.105699197E0,7.560721734E-1,-1.538348059E0,2.039786900E0
1.511130079E1,-9.596648403E-1,7.141989465E-1,-1.061863133E0,1.599559331E0
1.512135679E1,-8.898077164E-1,6.541502345E-1,-6.386749935E-1,1.275764888E0
1.513141179E1,-9.316899334E-1,5.992970659E-1,-3.826154798E-1,1.172005849E0
1.514146779E1,-9.803747280E-1,4.635005987E-1,-1.262337846E-1,1.091742818E0
1.515152379E1,-1.012994663E0,3.181418873E-1,1.156661117E-1,1.068059501E0
1.516157879E1,-1.055776182E0,2.601130959E-1,3.021028286E-1,1.128533689E0
1.517163479E1,-1.032125656E0,2.836539862E-1,5.647568321E-1,1.210245113E0
1.518169079E1,-9.667056189E-1,2.500267951E-1,8.129044783E-1,1.287574014E0
1.519174579E1,-9.713564942E-1,2.127046023E-1,9.655080360E-1,1.385995113E0
1.520180179E1,-9.950654919E-1,1.535967804E-1,1.110271062E0,1.498815911E0
1.521185779E1,-1.049593848E0,1.054667404E-1,1.164706301E0,1.571404227E0
1.522191279E1,-1.091469706E0,8.951232009E-2,1.199496650E0,1.624226212E0
1.523196879E1,-1.104734407E0,1.123342951E-1,1.217715989E0,1.647995550E0
1.524202479E1,-1.115127760E0,1.388642089E-1,1.185474442E0,1.633445083E0
1.525207979E1,-1.099566711E0,1.865424053E-1,1.066647910E0,1.543237760E0
1.526213579E1,-1.000562971E0,2.481767361E-1,9.521190816E-1,1.403299219E0
1.527219079E1,-7.345718153E-1,2.999491529E-1,9.101787579E-1,1.207472823E0
1.528224679E1,-4.577456228E-1,3.925058989E-1,9.776953876E-1,1.148686296E0
1.529230658E1,-2.918204268E-1,4.743663333E-1,1.156976282E0,1.284046999E0
1.530236158E1,-3.583367075E-1,6.470986386E-1,1.271153693E0,1.470705121E0
1.531241758E1,-5.060435510E-1,8.025344414E-1,1.115037712E0,1.464052836E0
1.532247358E1,-6.348683099E-1,7.731399035E-1,8.654317707E-1,1.322790698E0
1.533252858E1,-7.079491501E-1,6.980159001E-1,9.165177244E-1,1.352191900E0
1.534258458E1,-4.968525320E-1,5.932289717E-1,1.343015388E0,1.549991414E0
1.535264058E1,-3.094859251E-1,5.428476074E-1,1.838543526E0,1.941830930E0
1.536269558E1,-3.734499327E-1,6.806210914E-1,2.166868193E0,2.301744488E0
1.537275158E1,-5.027143657E-1,6.514122757E-1,2.581914085E0,2.709859780E0
1.538280758E1,-6.545696260E-1,4.073006701E-1,2.752003157E0,2.857949720E0
1.539286258E1,-8.550872422E-1,1.550710827E-1,2.801750098E0,2.933432263E0
1.540291858E1,-8.980033931E-1,-1.315211293E-1,2.844898456E0,2.986160600E0
1.541297458E1,-8.537601435E-1,-4.526187842E-1,3.039910115E0,3.189799939E0
1.542302958E1,-7.896199154E-1,-7.783041644E-1,3.473247267E0,3.645916011E0
1.543308558E1,-7.656676005E-1,-1.120593737E0,3.643058596E0,3.887653936E0
1.544314158E1,-9.021869297E-1,-1.300316388E0,3.079508044E0,3.462388447E0
1.545319658E1,-1.101555495E0,-1.207693715E0,1.807101293E0,2.436711657E0
1.546325258E1,-1.193386894E0,-1.030915721E0,4.014084309E-1,1.627294759E0
1.547330858E1,-1.176266539E0,-9.934619661E-1,-8.789990652E-1,1.772909757E0
1.548336358E1,-1.371937763E0,-8.976019818E-1,-2.005988486E0,2.590732011E0
1.549341958E1,-1.493582799E0,-7.517494731E-1,-2.701914153E0,3.177460769E0
1.550347458E1,-1.540345760E0,-6.536595069E-1,-2.889948914E0,3.339422186E0
1.551353058E1,-1.576467081E0,-6.075898795E-1,-2.651328136E0,3.143875762E0
1.552358658E1,-1.551590541E0,-7.462573296E-1,-2.116338310E0,2.728226722E0
1.553364158E1,-1.467252495E0,-9.206635465E-1,-1.498982264E0,2.290720210E0
1.554369758E1,-1.418899384E0,-1.000184802E0,-9.671627980E-1,1.987221421E0
1.555375358E1,-1.343265941E0,-1.019179190E0,-5.470087785E-1,1.772655695E0
1.556380858E1,-1.199119650E0,-1.087294282E0,-3.231791174E-1,1.650618531E0
1.557386458E1,-1.063067367E0,-1.143931290E0,-2.036649531E-1,1.574855688E0
1.558392058E1,-9.914995674E-1,-1.145005277E0,-2.088970417E-1,1.528969081E0
1.559397558E1,-9.552369632E-1,-1.168023719E0,-2.949873519E-1,1.537457187E0
1.560403158E1,-9.094993845E-1,-1.154534485E0,-4.595829642E-1,1.539920617E0
1.561408758E1,-9.101167043E-1,-1.086413399E0,-7.165908962E-1,1.588114921E0
1.562414258E1,-9.062087908E-1,-9.796071348E-1,-1.003730115E0,1.669825936E0
1.563419858E1,-9.068962772E-1,-8.726001647E-1,-1.268658686E0,1.787004971E0
1.564425458E1,-8.194143297E-1,-7.750618833E-1,-1.500672694E0,1.877279761E0
1.565430958E1,-7.025210336E-1,-6.260461771E-1,-1.633561780E0,1.885203890E0
1.566436558E1,-5.527861199E-1,-4.995331880E-1,-1.693530239E0,1.850175821E0
1.567442158E1,-3.989060785E-1,-3.730140594E-1,-1.749867577E0,1.833112677E0
1.568447658E1,-2.527849267E-1,-2.697156858E-1,-1.786444250E0,1.824288855E0
1.569453258E1,-1.474018016E-1,-2.069462644E-1,-1.728552137E0,1.747125221E0
1.570458758E1,-4.441128395E-2,-1.917464273E-1,-1.592935910E0,1.605049491E0
1.571464358E1,7.582786202E-2,-1.840469599E-1,-1.314134236E0,1.329124501E0
1.572469958E1,1.195254933E-1,-1.481697603E-1,-1.067586388E0,1.084426723E0
1.573475458E1,8.832131535E-2,-1.134672663E-1,-9.763154447E-1,9.868471629E-1
1.574481058E1,1.801746413E-2,-7.670859888E-2,-9.867199802E-1,9.898611810E-1
1.575486658E1,-1.013269117E-1,-3.372703224E-2,-1.023525279E0,1.029081461E0
1.576492158E1,-1.984517949E-1,8.252613991E-3,-9.821620756E-1,1.002044691E0
1.577497758E1,-2.402920581E-1,4.386771217E-2,-9.256212544E-1,9.573083913E-1
1.578503358E1,-2.500480644E-1,8.456754908E-2,-8.597833604E-1,8.993904222E-1
1.579508858E1,-2.785453469E-1,1.216333415E-1,-8.426457560E-1,8.957868330E-1
1.580514458E1,-2.573085520E-1,1.249643540E-1,-7.546738118E-1,8.070665047E-1
1.581520058E1,-2.029607291E-1,7.032636300E-2,-4.711282915E-1,5.177844358E-1
1.582525558E1,-5.983704284E-2,-3.903367281E-2,-8.450980783E-3,7.194107578E-2
1.583531158E1,1.375504126E-1,-1.624188401E-1,4.549046069E-1,5.022332098E-1
1.584536758E1,3.374482240E-1,-2.592064852E-1,8.528450543E-1,9.531022990E-1
1.585542258E1,5.054221382E-1,-3.428288318E-1,1.247578304E0,1.389040953E0
1.586547858E1,5.365728872E-1,-4.768505229E-1,1.576890566E0,1.732593646E0
1.587553458E1,3.991662430E-1,-5.608893375E-1,1.892115716E0,2.013462793E0
1.588558958E1,-2.074453242E-2,-3.195057504E-1,1.969601848E0,1.995456264E0
1.589564558E1,-2.938185666E-1,3.350337625E-2,1.346676915E0,1.378764135E0
1.590570058E1,-2.036890729E-1,1.116888356E-1,6.754639202E-1,7.142934565E-1
1.591575658E1,4.360553764E-2,1.363472749E-1,5.413644612E-1,5.599709833E-1
1.592581258E1,5.543429410E-1,1.120368911E-1,1.039761828E0,1.183618612E0
1.593586758E1,7.894044455E-1,8.105907351E-2,1.848879649E0,2.011985564E0
1.594592358E1,7.995475374E-1,-2.549312934E-2,2.481921435E0,2.607654151E0
1.595597958E1,7.659375957E-1,-1.932823446E-1,2.851247948E0,2.958653972E0
1.596603458E1,5.808105454E-1,-3.843214050E-1,3.184342774E0,3.259613893E0
1.597609058E1,3.099478186E-1,-7.122440761E-1,3.212656161E0,3.305225996E0
1.598614658E1,-2.130499901E-1,-8.478019039E-1,2.689005255E0,2.827526769E0
1.599620158E1,-7.439056525E-1,-5.405750140E-1,1.785251418E0,2.008168218E0
1.600625758E1,-9.976282534E-1,-2.081820734E-1,9.308106583E-1,1.380221138E0
1.601631358E1,-1.060746388E0,-1.082808591E-1,3.541793007E-1,1.123543778E0
1.602636858E1,-1.112704820E0,-1.369656911E-1,-2.596982360E-2,1.121403606E0
1.603642458E1,-1.189776092E0,-2.645076440E-1,-2.376893163E-3,1.218826112E0
1.604648058E1,-9.975889309E-1,-5.686397488E-1,5.485670614E-1,1.272580316E0
1.605653558E1,-5.179273590E-1,-8.839575771E-1,1.347690822E0,1.692897014E0
1.606659158E1,-1.462205909E-3,-9.575334571E-1,2.022335547E0,2.237568664E0
1.607664758E1,4.510784083E-1,-8.517163224E-1,2.504061332E0,2.683135401E0
1.608670258E1,8.130437882E-1,-8.201589726E-1,2.788298578E0,3.017997665E0
1.609675858E1,1.159491096E0,-8.310814983E-1,2.907484129E0,3.238607729E0
1.610681358E1,1.314914693E0,-7.109596621E-1,2.605035730E0,3.003443931E0
1.611686958E1,1.139659022E0,-4.528492375E-1,1.735003370E0,2.124648633E0
1.612692558E1,7.798852515E-1,-1.473945656E-1,5.239380044E-1,9.510295453E-1
1.613698058E1,4.999430413E-1,2.714087471E-2,-5.445248812E-1,7.397209054E-1
1.614703658E1,2.894041015E-1,1.190852711E-1,-1.621057509E0,1.650988638E0
1.615709258E1,8.825505909E-2,4.042637725E-1,-2.764254827E0,2.795053292E0
1.616714758E1,-1.170995932E-1,7.480002384E-1,-3.750049778E0,3.825714314E0
1.617720358E1,-1.886949116E-1,9.729034482E-1,-4.506618088E0,4.614298807E0
1.618725958E1,-1.836080167E-1,1.140439187E0,-4.974370782E0,5.106728710E0
1.619731458E1,-1.497879041E-1,1.283376858E0,-5.074885004E0,5.236788174E0
1.620737058E1,-1.925304658E-1,1.386913798E0,-4.884552287E0,5.081284179E0
1.621742658E1,-2.542864917E-1,1.369400657E0,-4.394474924E0,4.609916445E0
1.622748158E1,-3.683495893E-1,1.180570820E0,-3.644675936E0,3.848777930E0
1.623753758E1,-5.731518258E-1,9.719461128E-1,-2.805282401E0,3.023704948E0
1.624759358E1,-8.084070924E-1,7.399359047E-1,-2.076141626E0,2.347635240E0
1.625764858E1,-1.025883607E0,5.300604777E-1,-1.600304571E0,1.973417342E0
1.626770458E1,-1.165293946E0,4.563270883E-1,-1.266473581E0,1.780477387E0
1.627776058E1,-1.247454781E0,3.757173733E-1,-8.282241833E-1,1.543781809E0
1.628781217E1,-1.311083451E0,3.049784893E-1,-4.375149876E-1,1.415404910E0
1.629786817E1,-1.380721597E0,2.475763732E-1,-9.352679908E-2,1.405856839E0
1.630792417E1,-1.447874091E0,1.848739024E-1,1.570673221E-1,1.468055819E0
1.631797917E1,-1.513812265E0,1.037660046E-1,3.407599407E-1,1.555156679E0
1.632803517E1,-1.591098130E0,6.508652687E-2,4.846195722E-1,1.664537667E0
1.633809017E1,-1.554497192E0,4.446895212E-2,6.011545801E-1,1.667280971E0
1.634814617E1,-1.392957627E0,9.816495672E-2,6.151112992E-1,1.525886371E0
1.635820217E1,-1.221774614E0,2.468001553E-1,5.180089277E-1,1.349806199E0
1.636825717E1,-1.045532956E0,4.444800447E-1,3.109210145E-1,1.177868223E0
1.637831317E1,-9.313730143E-1,6.282106702E-1,4.911544204E-2,1.124507299E0
1.638836917E1,-8.949925156E-1,7.894176748E-1,-2.070960993E-1,1.211231053E0
