"Time (s)","Linear Acceleration x (m/s^2)","Linear Acceleration y (m/s^2)","Linear Acceleration z (m/s^2)","Absolute acceleration (m/s^2)"
5.296083284E-3,-6.143083303E-1,6.005412072E-1,-4.924747217E-1,9.902301842E-1
1.535208337E-2,-5.406546092E-1,6.476264960E-1,-4.174701476E-1,9.412804093E-1
2.540708333E-2,-4.250567637E-1,5.486711419E-1,-2.274865097E-1,7.303857792E-1
3.546308330E-2,-3.615447459E-1,4.273408324E-1,7.501977682E-3,5.598134242E-1
4.551908327E-2,-2.588492203E-1,2.511952150E-1,3.122997880E-2,3.620459452E-1
5.557508336E-2,-1.032673833E-1,1.762561297E-1,-1.130828118E-1,2.334911092E-1
6.563008332E-2,-1.075491531E-1,1.979522234E-1,-3.120811021E-1,3.848980611E-1
7.568608329E-2,-2.453615941E-1,4.220333147E-1,-3.282065535E-1,5.882465234E-1
8.574208338E-2,-3.256346557E-1,6.257620025E-1,-2.284396058E-1,7.414854457E-1
9.579708334E-2,-3.159733012E-1,5.704286313E-1,-1.169788116E-1,6.625043342E-1
1.058530833E-1,-2.019429481E-1,4.375980181E-1,2.253283024E-2,4.824735310E-1
1.159090833E-1,-8.920278311E-2,3.647528207E-1,9.551368296E-2,3.874591854E-1
1.259640834E-1,-1.162832853E-1,3.159911352E-1,7.898594320E-2,3.458482026E-1
1.360200833E-1,-2.268864392E-1,3.221008909E-1,2.203037900E-1,4.513980506E-1
1.460760833E-1,-3.664169383E-1,3.675004274E-1,4.866625893E-1,7.114481096E-1
1.561320834E-1,-4.134414160E-1,4.005991763E-1,6.384902215E-1,8.596995216E-1
1.661870833E-1,-4.664179207E-1,3.747702706E-1,5.759858251E-1,8.305167687E-1
1.762430833E-1,-4.802483399E-1,3.252876234E-1,3.979071182E-1,7.034064121E-1
1.862990833E-1,-4.593502450E-1,1.993432760E-1,1.294374740E-1,5.171986552E-1
1.963540834E-1,-5.885637707E-1,-6.553395581E-1,9.100898802E-2,8.855280258E-1
2.064100833E-1,6.372313160E-1,-2.597157776E-2,2.742572182E-1,6.942300013E-1
2.164660833E-1,5.470975100E-1,1.869348997E-1,-5.025599992E-1,7.660462747E-1
2.265210834E-1,-1.996900159E-1,-4.080801040E-1,-1.364261246E0,1.437920103E0
2.365770834E-1,3.076837036E-1,-3.260974628E-1,-1.648249401E0,1.708137847E0
2.466330833E-1,9.346069631E-1,-5.801548898E-2,-1.698039612E0,1.939122094E0
2.566890833E-1,1.149027139E0,-2.577692395E-1,-1.666302094E0,2.040409522E0
2.667440834E-1,1.244729394E0,-4.406730688E-1,-1.352866192E0,1.890447289E0
2.768000833E-1,1.078674463E0,-3.908863664E-1,-7.029592824E-1,1.345541713E0
2.868560833E-1,8.448565882E-1,-7.390325099E-2,6.323646784E-2,8.504370618E-1
2.969110833E-1,1.048510139E0,1.044242549E-1,4.314303750E-1,1.138600064E0
3.069670834E-1,1.330398559E0,-1.320614120E-1,7.448586756E-1,1.530429674E0
3.170230833E-1,1.675138261E0,-3.308834088E-1,9.214089203E-1,1.940249061E0
3.270780833E-1,2.114945649E0,-5.562494257E-1,9.056875116E-1,2.366997759E0
3.371340834E-1,2.519235442E0,-7.036963239E-1,7.075458384E-1,2.709678365E0
3.471900834E-1,2.795808742E0,-8.344418201E-1,5.362487322E-1,2.966547215E0
3.572450833E-1,3.206653410E0,-1.109565011E0,3.742264795E-1,3.413767136E0
3.673010833E-1,3.531679955E0,-1.657000344E0,3.183458090E-2,3.901208388E0
3.773570834E-1,3.289789122E0,-1.573538649E0,-5.907395196E-1,3.694280651E0
3.874130833E-1,3.333804038E0,-1.328387116E0,-1.098995876E0,3.753219102E0
3.974680833E-1,3.359594352E0,-1.315787536E0,-1.807571994E0,4.035528164E0
4.075240833E-1,3.197404284E0,-1.159709271E0,-2.352951154E0,4.135782741E0
4.175800834E-1,2.705736186E0,-7.939723635E-1,-2.398098675E0,3.701658773E0
4.276350833E-1,2.099798875E0,-1.956864274E-1,-1.545087560E0,2.614334344E0
4.376910833E-1,1.272879206E0,1.152864228E0,-5.332958883E-1,1.798255239E0
4.477470834E-1,1.388910769E0,1.238429896E0,-1.116041095E0,2.169868534E0
4.578030834E-1,1.269781351E0,3.780208839E-1,-8.607551676E-1,1.579918962E0
4.678580833E-1,-6.003043950E-2,7.969829486E-1,3.158636659E-1,8.593924188E-1
4.779140833E-1,2.357772768E-2,1.080626410E0,1.051483741E0,1.507954709E0
4.879700834E-1,1.096462278E0,3.540274192E-1,-5.364644945E-1,1.270967778E0
4.980250833E-1,6.061299759E-1,4.012131339E-1,-3.420526432E0,3.496908148E0
5.080810833E-1,-3.655363476E-1,4.538316429E-1,-4.396781650E0,4.435230418E0
5.181370833E-1,-2.261886909E0,-5.569665867E-1,-3.163947101E0,3.928982747E0
5.281920834E-1,-2.635956683E0,-7.243010348E-1,-9.195740640E-2,2.735203062E0
5.382480833E-1,-2.047094705E0,-8.409091330E-1,4.240517735E0,4.783274565E0
5.483040833E-1,-1.100533109E0,-1.063096311E0,4.688150160E0,4.931541221E0
5.583600834E-1,-1.465800485E0,-1.782023462E0,3.425164443E0,4.129882583E0
5.684150833E-1,-1.415424383E0,-2.336654379E0,2.864738644E0,3.958548644E0
5.784710833E-1,-1.075225483E0,-1.680913117E0,3.145247705E0,3.724803602E0
5.885270833E-1,-1.480993013E0,-5.878577194E-1,3.680272030E0,4.010401379E0
5.985820834E-1,-1.899437892E0,2.843246618E-1,4.313606177E0,4.721853774E0
6.086380833E-1,-2.886317501E0,1.562424262E0,5.299437380E0,6.233460904E0
6.186940833E-1,-3.748375428E0,2.774446524E0,6.187538221E0,7.748128878E0
6.287490834E-1,-4.377386436E0,3.319201786E0,6.741672417E0,8.696479718E0
6.388050833E-1,-4.349261329E0,3.039235054E0,5.601846603E0,7.715809043E0
6.488610833E-1,-3.535219274E0,1.876750402E0,6.140357038E0,7.329662472E0
6.589160833E-1,-3.262832873E0,2.065823629E0,7.932261418E0,8.822384985E0
6.689720834E-1,-2.807130121E0,2.411844017E0,9.051644781E0,9.779020622E0
6.790280833E-1,-2.087786794E0,1.957561554E0,9.619402989E0,1.003612549E1
6.890840833E-1,-2.027449230E0,1.054701756E0,1.052370646E1,1.076899921E1
6.991390834E-1,-2.273068832E0,9.398884606E-1,1.096954262E1,1.124193478E1
7.091950834E-1,-2.395913424E0,-1.032492569E-1,1.009767950E1,1.037854483E1
7.192510833E-1,-5.968483251E-1,-3.857890561E-1,8.914900627E0,8.943182560E0
7.293060833E-1,1.062549012E0,5.821739334E-1,7.775596969E0,7.869424701E0
7.393620834E-1,3.523263180E-1,1.547711205E-1,5.639282232E0,5.652397016E0
7.494180833E-1,3.156206410E-1,-1.493539676E-1,1.685154687E0,1.720950120E0
7.594730833E-1,-3.799639503E-1,-1.091463493E0,-8.357378554E-1,1.426226813E0
7.695290833E-1,-1.310251100E0,-2.026703417E0,-1.687777163E0,2.944974778E0
7.795850834E-1,-7.689839950E-1,-2.121494384E0,-1.392347762E0,2.651548057E0
7.896413333E-1,6.775771040E-1,-1.483660221E0,-1.887547286E0,2.494632867E0
7.996963334E-1,5.067894730E-1,-1.471309147E0,-3.109255169E0,3.476931676E0
8.097523333E-1,-1.078579300E0,-1.815073387E0,-5.532198079E0,5.921405263E0
8.198083333E-1,-6.737917627E-1,-2.472947713E0,-7.501752564E0,7.927531600E0
8.298633334E-1,-7.908845951E-1,-3.279037262E0,-9.542394574E0,1.012101171E1
8.399193333E-1,-1.159953903E0,-3.222438553E0,-1.110849586E1,1.162446917E1
8.499753333E-1,8.746005703E-1,-3.343896917E0,-1.138964051E1,1.190254106E1
8.600303333E-1,1.951339824E0,-3.787583640E0,-1.067721926E1,1.149593529E1
8.700863334E-1,2.325742743E0,-4.217152262E0,-1.038964150E1,1.145155461E1
8.801423333E-1,1.605589285E0,-4.510650328E0,-1.113372425E1,1.211955854E1
8.901983333E-1,9.835841916E-1,-4.422442741E0,-1.080132291E1,1.171298486E1
9.002533334E-1,-3.964961851E-1,-3.789232263E0,-8.809063100E0,9.597660291E0
9.103093334E-1,-1.763928523E0,-2.857174101E0,-8.013902582E0,8.688931020E0
9.203653333E-1,-3.164015513E0,-2.565775478E0,-7.929190460E0,8.914384966E0
9.304203333E-1,-4.270703986E0,-2.695607931E0,-7.800647610E0,9.292756200E0
9.404763334E-1,-4.588099915E0,-3.060371277E0,-7.850915539E0,9.594446726E0
9.505323333E-1,-4.780873844E0,-3.723865654E0,-7.944815975E0,9.992198507E0
9.605873333E-1,-4.773439110E0,-4.258012312E0,-7.398857941E0,9.780566886E0
9.706433333E-1,-4.787507803E0,-4.562487649E0,-7.109500288E0,9.709867088E0
9.806993334E-1,-4.801586729E0,-4.673412546E0,-5.920067282E0,8.941097055E0
9.907553333E-1,-4.115156356E0,-4.533472888E0,-4.650070753E0,7.688305812E0
1.000810333E0,-3.588647330E0,-4.262009761E0,-3.439039301E0,6.547526875E0
1.010866333E0,-2.597541354E0,-3.647413894E0,-2.229125252E0,5.001984465E0
1.020922333E0,-1.135854385E0,-3.153388199E0,-1.094950188E0,3.526037185E0
1.030977333E0,5.816406673E-1,-2.828410478E0,-1.370122495E0,3.196161346E0
1.041033333E0,3.750678354E0,-2.480170486E0,-5.292274541E0,6.944566479E0
1.051089333E0,4.697141424E-1,-2.013395154E0,-3.692502651E0,4.231898776E0
1.061144333E0,-3.312769264E-1,6.583380103E-3,7.761295849E-1,8.438986168E-1
1.071200333E0,2.261558296E0,3.249495374E0,1.576536224E0,4.261376841E0
1.081256333E0,4.406189235E0,4.935147659E0,7.331028485E-1,6.656397358E0
1.091312333E0,4.626590674E0,6.300097123E0,1.584032940E0,7.975319766E0
1.101367333E0,2.956563903E0,8.483432245E0,5.548817035E0,1.055932115E1
1.111423333E0,2.419578714E0,1.126876804E1,1.271539024E1,1.716160375E1
1.121479333E0,4.026817791E0,1.336338920E1,1.876596738E1,2.338711107E1
1.131534333E0,6.924432989E0,1.366587853E1,1.872977077E1,2.419727922E1
1.141590333E0,9.420764887E0,1.164799272E1,1.641493177E1,2.222333302E1
1.151646333E0,1.119782494E1,8.603055167E0,1.570001493E1,2.111620966E1
1.161701333E0,1.123060677E1,6.786471444E0,1.601652472E1,2.070535648E1
1.171757333E0,8.892118120E0,7.304307879E0,1.790994904E1,2.128823508E1
1.181813333E0,7.316872376E0,6.972935643E0,1.893044487E1,2.145973429E1
1.191869333E0,6.342957798E0,4.489367632E0,1.665586395E1,1.837948148E1
1.201924333E0,4.245330871E0,3.248174196E0,1.320569214E1,1.424653553E1
1.211980333E0,2.421471165E0,2.717205499E0,9.597637314E0,1.026456869E1
1.222036333E0,2.384181425E0,1.885826451E0,4.961389378E0,5.818594936E0
1.232091333E0,3.392614748E0,3.351708797E-1,1.060305435E0,3.570213154E0
1.242147333E0,4.723874894E-1,-2.248502925E0,-3.218770010E0,3.954667587E0
1.252203333E0,4.211439532E-1,-3.017950020E0,-8.962159578E0,9.466028145E0
1.262258333E0,1.595968422E0,-2.153395331E0,-1.167069863E1,1.197453269E1
1.272314333E0,1.582851510E-1,-1.720988764E0,-9.667593986E0,9.820856887E0
1.282370333E0,-8.531043783E-2,-1.313384623E0,-4.617614613E0,4.801522858E0
1.292426333E0,-3.326499111E0,-2.755548031E0,-8.817066184E0,9.818314386E0
1.302481333E0,-3.736549434E0,-4.670574307E0,-9.182241758E0,1.095854141E1
1.312537333E0,-2.844650534E0,-5.383888131E0,-1.297732913E1,1.433490005E1
1.322593333E0,-2.391131864E0,-4.190755591E0,-1.301126286E1,1.387706400E1
1.332648333E0,-1.571846758E0,-4.364333112E0,-1.195664384E1,1.282495371E1
1.342704333E0,-1.080612376E0,-4.737906457E0,-1.226160655E1,1.318948353E1
1.352760333E0,-6.745109703E-1,-4.544613295E0,-1.257201184E1,1.338521411E1
1.362815333E0,-4.749478389E-1,-4.180054017E0,-1.265860910E1,1.333937073E1
1.372871333E0,-7.822671148E-1,-4.215264196E0,-1.296696553E1,1.365732730E1
1.382927333E0,-1.050706792E0,-4.261803062E0,-1.312703656E1,1.384146087E1
1.392982333E0,-1.157771942E0,-4.075911598E0,-1.289814146E1,1.357628610E1
1.403038333E0,-1.382298591E0,-4.120454810E0,-1.220753150E1,1.295811415E1
1.413094333E0,-1.396619738E0,-4.246297708E0,-1.147397256E1,1.231396107E1
1.423150333E0,-1.520811090E0,-4.234619064E0,-1.071754634E1,1.162371131E1
1.433205333E0,-1.851234908E0,-4.505844209E0,-1.008831928E1,1.120285181E1
1.443261333E0,-2.242936668E0,-4.521991587E0,-9.552676903E0,1.080429585E1
1.453317333E0,-2.527356055E0,-4.396206284E0,-9.256443509E0,1.055442584E1
1.463372333E0,-2.209371458E0,-4.115324171E0,-8.954463472E0,1.009948669E1
1.473428333E0,-1.648951505E0,-3.555789194E0,-8.213951617E0,9.101191077E0
1.483484333E0,-9.759299670E-1,-3.153430006E0,-7.223848438E0,7.942326256E0
1.493540333E0,-4.313679560E-1,-2.716477228E0,-6.077745053E0,6.671155206E0
1.503595333E0,2.425147310E-1,-2.382929536E0,-4.361377929E0,4.975819933E0
1.513651333E0,6.130624348E-1,-2.106916106E0,-2.311644083E0,3.187262053E0
1.523707333E0,6.273971763E-1,-1.825022424E0,-5.664952093E-1,2.011280907E0
1.533762333E0,4.282215692E-1,-1.235359085E0,1.619520276E0,2.081425402E0
1.543818333E0,7.190560824E-1,8.162742287E-2,4.439675655E0,4.498269068E0
1.553874333E0,9.177492942E-1,2.902699353E0,7.131606272E0,7.754207588E0
1.563929333E0,1.017570913E0,6.109246927E0,8.955547546E0,1.088853436E1
1.573985333E0,1.424718971E0,9.088648885E0,1.138351614E1,1.463618128E1
1.584041333E0,1.789580550E0,1.083987243E1,1.564077796E1,1.911385278E1
1.594096333E0,2.379861209E0,1.051955728E1,2.279084448E1,2.521403214E1
1.604152333E0,3.763373244E0,9.470787817E0,3.114177004E1,3.276688330E1
1.614208333E0,5.101585144E0,8.735123888E0,3.727342233E1,3.862171116E1
1.624264333E0,5.810737213E0,7.970246100E0,3.864117963E1,3.988019876E1
1.634319333E0,5.259585097E0,8.032987894E0,3.523440000E1,3.651924251E1
1.644375333E0,4.491480231E0,8.311812372E0,2.951346550E1,3.098877644E1
1.654431333E0,3.417200828E0,8.641851443E0,2.380563577E1,2.555517858E1
1.664486333E0,1.948491207E0,7.855783346E0,1.971340108E1,2.131028231E1
1.674542333E0,7.679003598E-1,5.846519249E0,1.728548161E1,1.826360678E1
1.684598333E0,3.967177580E-1,3.767742283E0,1.456627256E1,1.505089908E1
1.694653333E0,-1.731086466E-2,1.964079153E0,1.034875309E1,1.053349881E1
1.704709333E0,-7.832613607E-1,3.478090516E-1,5.015061556E0,5.087760991E0
1.714765333E0,-1.349696417E0,-9.169501260E-1,-5.308827424E-1,1.715900474E0
1.724820333E0,-1.337147269E0,-2.236628107E0,-5.028027756E0,5.663173247E0
1.734876333E0,-1.285072259E0,-3.617166540E0,-8.321756147E0,9.164438328E0
1.744932333E0,-1.019287510E0,-4.849468408E0,-1.087266128E1,1.194868420E1
1.754988333E0,-3.958711908E-1,-5.836992965E0,-1.283029037E1,1.410118973E1
1.765043333E0,-1.721387763E-1,-6.491050229E0,-1.458555668E1,1.596564526E1
1.775099333E0,-5.209113028E-1,-6.807241339E0,-1.683943963E1,1.817076251E1
1.785155833E0,-2.735039799E0,-7.147476785E0,-1.847244417E1,1.999495088E1
1.795210833E0,-2.934928620E0,-9.138692865E0,-1.879521749E1,2.110425819E1
1.805266833E0,2.201252160E0,-6.295242764E0,-2.002983836E1,2.111089807E1
1.815322833E0,1.159722427E0,-4.490494975E0,-1.979583279E1,2.033185917E1
1.825377833E0,-1.331529410E-1,-6.603419681E0,-1.815028480E1,1.931465039E1
1.835433833E0,5.939475214E-1,-6.938347024E0,-1.617211679E1,1.760769134E1
1.845489833E0,3.715304015E-1,-6.765350717E0,-1.382544905E1,1.539646214E1
1.855545833E0,4.972483885E-1,-6.799849289E0,-1.228904168E1,1.405367396E1
1.865600833E0,5.351879011E-1,-6.733086365E0,-1.138871782E1,1.324098832E1
1.875656833E0,4.526973561E-1,-6.516465737E0,-1.042753380E1,1.230458133E1
1.885712833E0,3.779678205E-1,-6.287425037E0,-9.698104173E0,1.156407358E1
1.895767833E0,6.337428671E-1,-6.014704467E0,-9.041444314E0,1.087777620E1
1.905823833E0,1.066136863E0,-5.603868570E0,-8.118984064E0,9.922595074E0
1.915879833E0,1.151673954E0,-5.315202643E0,-7.446049649E0,9.220704280E0
1.925934833E0,1.148659056E0,-5.071222892E0,-7.091574479E0,8.793585608E0
1.935990833E0,9.674259228E-1,-4.754959277E0,-6.840791493E0,8.387012513E0
1.946046833E0,7.573943020E-1,-4.549531973E0,-6.482189943E0,7.955543587E0
1.956101833E0,4.014609462E-1,-4.476570416E0,-5.773143125E0,7.316422290E0
1.966157833E0,3.468612179E-2,-4.474037110E0,-5.024535799E0,6.727865277E0
1.976213833E0,-9.079143506E-2,-4.332587408E0,-4.058421407E0,5.937199765E0
1.986269833E0,-2.998442685E-1,-4.116486012E0,-3.142015364E0,5.187255944E0
1.996324833E0,-4.201388899E-1,-3.867922337E0,-2.331863170E0,4.535959186E0
2.006380833E0,-3.221243528E-1,-3.445625897E0,-1.470674139E0,3.760184084E0
2.016436833E0,-3.319483329E-1,-2.797676050E0,-1.858350384E-1,2.823422682E0
2.026491833E0,-7.111565671E-1,-1.898663866E0,1.518204401E0,2.532905988E0
2.036547833E0,-8.183051860E-1,-6.251471677E-1,2.932718958E0,3.108258812E0
2.046603833E0,-8.635814193E-1,7.927318767E-1,5.002282466E0,5.137803671E0
2.056658833E0,-9.909703213E-1,1.986566083E0,8.399584926E0,8.688008628E0
2.066714833E0,-7.039334285E-1,3.182185443E0,1.266953170E1,1.308200519E1
2.076770833E0,-1.305671926E-1,4.207524821E0,1.678029738E1,1.730025124E1
2.086826833E0,4.314862159E-1,4.881732759E0,2.046786498E1,2.104640093E1
2.096881833E0,6.728338426E-1,4.997958450E0,2.369666472E1,2.422734432E1
2.106937833E0,8.255192614E-1,4.573682143E0,2.669380245E1,2.709537119E1
2.116993833E0,8.361027948E-1,4.343831019E0,2.898514149E1,2.932074970E1
2.127048833E0,6.832229561E-1,4.068783842E0,2.932976235E1,2.961852048E1
2.137104833E0,7.709691978E-1,4.206697148E0,2.781961132E1,2.814642905E1
2.147160833E0,8.375822865E-1,4.552360271E0,2.522337740E1,2.564457634E1
2.157215833E0,8.062053233E-1,4.692570071E0,2.223280960E1,2.273693039E1
2.167271833E0,7.665082839E-1,4.179405561E0,1.938892272E1,1.984906269E1
2.177327833E0,6.708946136E-1,3.080706431E0,1.691987743E1,1.721113314E1
2.187382833E0,1.053295501E0,2.180684287E0,1.468161240E1,1.488000531E1
2.197438833E0,1.553177621E0,1.631101564E0,1.124699769E1,1.147030122E1
2.207494833E0,1.731108101E0,1.166360478E0,6.733486315E0,7.049607789E0
2.217550833E0,1.233490753E0,3.847412351E-1,2.057246933E0,2.429360039E0
2.227605833E0,9.323459179E-1,-4.593739262E-1,-2.411607497E0,2.626051035E0
2.237661833E0,1.161432811E0,-1.241693958E0,-6.100754431E0,6.333240458E0
2.247717833E0,1.359440509E0,-2.162881562E0,-9.117904844E0,9.469019162E0
2.257772833E0,1.514342900E0,-3.175758476E0,-1.101300615E1,1.156135722E1
2.267828833E0,1.522535434E0,-3.927812735E0,-1.245493070E1,1.314804646E1
2.277884833E0,1.089063138E0,-4.258704330E0,-1.417934593E1,1.484508242E1
2.287939833E0,8.159724393E-1,-4.402893160E0,-1.605076133E1,1.666367962E1
2.297995833E0,8.866144788E-1,-4.473019694E0,-1.733973792E1,1.792931961E1
2.308051833E0,6.510961606E-1,-4.651703003E0,-1.739529349E1,1.801828245E1
2.318106833E0,1.948713255E-1,-4.887219494E0,-1.612392637E1,1.684944779E1
2.328162833E0,8.320003152E-3,-5.020201843E0,-1.455839402E1,1.539965364E1
2.338218833E0,4.071321242E-2,-5.030003530E0,-1.381125435E1,1.469875300E1
2.348274833E0,1.075525153E-1,-4.920344848E0,-1.376650210E1,1.461977910E1
2.358329833E0,1.232147940E-1,-4.764337041E0,-1.363360541E1,1.444262046E1
2.368385833E0,3.557903548E-1,-4.566500300E0,-1.317721737E1,1.395057595E1
2.378441833E0,8.082192506E-1,-4.341964881E0,-1.255862405E1,1.331258485E1
2.388496833E0,1.204733343E0,-4.146009774E0,-1.169494001E1,1.246645103E1
2.398552833E0,1.453399856E0,-4.074861146E0,-1.030968200E1,1.118062643E1
2.408608833E0,1.580871496E0,-4.057172149E0,-8.677806557E0,9.708971479E0
2.418663833E0,1.424941458E0,-4.057573268E0,-7.299543568E0,8.472171816E0
2.428719833E0,1.130609432E0,-4.028263807E0,-6.413229051E0,7.657329420E0
2.438775833E0,7.430035733E-1,-3.901812506E0,-5.908607908E0,7.119539491E0
2.448831833E0,2.796936670E-1,-3.722443027E0,-5.626588511E0,6.752281756E0
2.458886833E0,8.337100776E-2,-3.540664202E0,-5.552764490E0,6.586079805E0
2.468942833E0,9.024445544E-2,-3.307025252E0,-5.359558452E0,6.298367001E0
2.478998833E0,1.712974899E-1,-3.069149702E0,-5.266918675E0,6.098315755E0
2.489053833E0,4.258801979E-1,-2.767587156E0,-5.182973709E0,5.891021055E0
2.499109833E0,8.443950237E-1,-2.350862528E0,-4.972912486E0,5.565017177E0
2.509165833E0,1.007662953E0,-2.201549491E0,-4.547870779E0,5.152216359E0
2.519220833E0,9.875612484E-1,-2.050779620E0,-3.831448283E0,4.456564844E0
2.529276833E0,7.990034540E-1,-1.841600158E0,-2.924556245E0,3.547242153E0
2.539332833E0,3.874937388E-1,-1.681163670E0,-1.608380161E0,2.358675354E0
2.549387833E0,-4.955491877E-1,-1.386333901E0,1.010486573E-1,1.475703735E0
2.559443833E0,-1.702953904E0,-3.587491921E-1,2.005679169E0,2.655466420E0
2.569499833E0,-3.155923844E0,1.654878097E0,3.235543333E0,4.813233578E0
2.579555833E0,-4.569563949E0,3.945679780E0,4.074217075E0,7.283443443E0
2.589610833E0,-5.876993768E0,5.744757231E0,6.703320529E0,1.060546074E1
2.599666833E0,-6.513873666E0,5.556468117E0,1.178875157E1,1.456981646E1
2.609722833E0,-6.231827956E0,3.706634494E0,1.883997909E1,2.018711547E1
2.619777833E0,-5.933183756E0,1.658960330E0,2.724925286E1,2.793701129E1
2.629833833E0,-4.667189939E0,-2.359236033E-1,3.386653512E1,3.418743223E1
2.639889833E0,-2.441176136E0,-5.452632384E-1,3.611685243E1,3.620336562E1
2.649944833E0,-6.657026515E-1,4.852582343E-1,3.380757647E1,3.381761172E1
2.660000833E0,1.657006081E-1,1.802271493E0,2.912556589E1,2.918174476E1
2.670056833E0,-2.748754517E-1,3.062019022E0,2.427842525E1,2.447229964E1
2.680111833E0,-7.246319141E-1,3.526019558E0,2.028466002E1,2.060158580E1
2.690167833E0,-1.101685011E0,3.281203070E0,1.744795468E1,1.778794890E1
2.700223833E0,-1.117807100E0,2.719944043E0,1.542114368E1,1.569902101E1
2.710279833E0,-1.804627629E-1,2.347574346E0,1.312567065E1,1.333517537E1
2.720334833E0,1.703687291E0,2.137228365E0,9.950775225E0,1.031931311E1
2.730390833E0,4.159035031E0,1.976072377E0,5.740770600E0,7.359271806E0
2.740446833E0,6.663039061E0,1.780392966E0,7.593778968E-1,6.938482790E0
2.750501833E0,7.726926500E0,1.172171441E0,-4.222808273E0,8.883213875E0
2.760557833E0,6.948047554E0,2.557425946E-2,-9.349565681E0,1.164862212E1
2.770613833E0,4.612973678E0,-1.518621892E0,-1.442434193E1,1.521996645E1
2.780668833E0,1.779307723E0,-3.388820490E0,-1.811049450E1,1.851053893E1
2.790724625E0,-8.339728734E-1,-4.821638001E0,-1.991640238E1,2.050870029E1
2.800780625E0,-2.387056062E0,-5.496752842E0,-2.062271796E1,2.147577297E1
2.810835625E0,-2.670683297E0,-5.827012938E0,-2.064071335E1,2.161309040E1
2.820891625E0,-2.590313026E0,-5.903223792E0,-1.987516080E1,2.089449184E1
2.830947625E0,-2.573347329E0,-5.719453990E0,-1.847428487E1,1.950983014E1
2.841003625E0,-2.306247396E0,-5.421602672E0,-1.713829199E1,1.812273723E1
2.851058625E0,-1.700044914E0,-4.903549598E0,-1.605354110E1,1.687160731E1
2.861114625E0,-9.614318689E-1,-4.291869445E0,-1.502186071E1,1.565250120E1
2.871170625E0,-2.513849937E-1,-3.697234510E0,-1.361019433E1,1.410567712E1
2.881225625E0,2.360379895E-1,-3.284897633E0,-1.210381709E1,1.254386920E1
2.891281625E0,8.436424139E-1,-2.996937758E0,-1.065965774E1,1.110502911E1
2.901337625E0,1.436342359E0,-2.815558590E0,-9.061563413E0,9.596998543E0
2.911392625E0,1.812602061E0,-2.612355859E0,-7.628086921E0,8.264238588E0
2.921448625E0,2.137227926E0,-2.399824188E0,-6.634363146E0,7.371680520E0
2.931504625E0,2.213646503E0,-2.018975445E0,-6.082746177E0,6.780582109E0
2.941559625E0,2.032095427E0,-1.777792125E0,-5.871621931E0,6.462654312E0
2.951615625E0,1.726093821E0,-1.736048560E0,-5.453357146E0,5.977655782E0
2.961671625E0,1.220685790E0,-1.826788430E0,-4.653973185E0,5.146522726E0
2.971727625E0,8.642186196E-1,-1.850275379E0,-4.179383342E0,4.651627448E0
2.981782625E0,4.949596056E-1,-1.918501715E0,-3.903623974E0,4.377660787E0
2.991838625E0,4.027139132E-2,-2.008871164E0,-3.525415540E0,4.057799880E0
3.001894625E0,-6.466744596E-2,-1.962604193E0,-3.284790337E0,3.826988980E0
3.011949625E0,6.107780830E-2,-1.691783091E0,-3.297382901E0,3.706561010E0
3.022005625E0,1.804202426E-1,-1.312154807E0,-3.297712684E0,3.553760072E0
3.032061625E0,3.195576079E-1,-7.952167971E-1,-3.067487923E0,3.184959808E0
3.042116625E0,4.277770712E-1,-2.785053666E-1,-2.225200016E0,2.282996622E0
3.052172625E0,9.901067424E-3,5.201662579E-1,-1.068989135E0,1.188868680E0
3.062228625E0,-1.017594375E0,1.826098312E0,2.993634081E-1,2.111812446E0
3.072283625E0,-2.790635710E0,3.817888882E0,1.796328968E0,5.058727206E0
3.082339625E0,-4.969734524E0,5.599812942E0,3.437307356E0,8.238400821E0
3.092395625E0,-6.273107545E0,5.521905810E0,6.420235185E0,1.053863093E1
3.102451625E0,-6.223147765E0,3.849001332E0,1.230719378E1,1.431814925E1
3.112506625E0,-5.274069820E0,1.227022417E0,2.100064222E1,2.168751646E1
3.122562625E0,-4.026114078E0,-1.795128534E0,3.014575533E1,3.046635268E1
3.132618625E0,-2.063820373E0,-5.001657983E0,3.775745952E1,3.814317353E1
3.142673625E0,7.285376349E-1,-6.633321172E0,4.363460356E1,4.414193409E1
3.152729625E0,3.303732685E0,-6.608668141E0,4.461542487E1,4.522306138E1
3.162785625E0,4.561835099E0,-4.641754258E0,3.963766212E1,4.016840152E1
3.172840625E0,4.770137187E0,-2.311691007E0,3.218206455E1,3.261569259E1
3.182896625E0,4.608376890E0,-6.684121782E-1,2.548857670E1,2.591045068E1
3.192952625E0,4.549234057E0,8.186577000E-1,1.975531159E1,2.028886559E1
3.203007625E0,4.278141060E0,1.576368556E0,1.395923100E1,1.468494328E1
3.213063625E0,3.584162516E0,1.155650280E0,7.426090178E0,8.326377595E0
3.223119625E0,2.919805674E0,2.402752474E-1,1.020375969E0,3.102283754E0
3.233175625E0,2.265901315E0,-1.496232611E0,-4.504379189E0,5.259510688E0
3.243230625E0,4.958432295E-1,-3.463616318E0,-9.498004267E0,1.012198516E1
3.253286625E0,-1.685504935E0,-5.067306427E0,-1.456655791E1,1.551461023E1
3.263342625E0,-2.796144080E0,-5.712053754E0,-1.858601230E1,1.964397701E1
3.273397625E0,-3.388779851E0,-5.610563632E0,-2.077575597E1,2.178518509E1
3.283453625E0,-3.461296435E0,-5.473991386E0,-2.163004119E1,2.257883603E1
3.293509625E0,-2.837814555E0,-4.924924972E0,-2.161717732E1,2.235196709E1
3.303564625E0,-1.986658176E0,-4.197416447E0,-2.133693197E1,2.183643243E1
3.313620625E0,-9.537173449E-1,-3.490067075E0,-2.100048552E1,2.130986947E1
3.323676625E0,-4.300115481E-2,-2.637799433E0,-2.027762933E1,2.044852283E1
3.333731625E0,3.413632272E-1,-2.127054502E0,-1.919716445E1,1.931766064E1
3.343787625E0,4.074761597E-1,-2.019774174E0,-1.762159945E1,1.774165414E1
3.353843625E0,5.711213071E-1,-2.023000960E0,-1.547403174E1,1.561615736E1
3.363899625E0,9.415538938E-1,-2.297606088E0,-1.294744986E1,1.318339771E1
3.373954625E0,1.189359843E0,-2.702730424E0,-1.014535536E1,1.056634109E1
3.384010625E0,1.296284587E0,-3.027984134E0,-7.685943366E0,8.361983441E0
3.394066625E0,1.349278926E0,-3.273820668E0,-5.942191392E0,6.917231666E0
3.404121625E0,1.074252872E0,-3.431757179E0,-4.777544147E0,5.979624123E0
3.414177625E0,5.823011103E-1,-3.571134920E0,-4.034991614E0,5.419708158E0
3.424233625E0,3.268591357E-1,-3.539343023E0,-3.859699690E0,5.247005587E0
3.434288625E0,2.578980976E-1,-3.166126650E0,-4.250436367E0,5.306324407E0
3.444344625E0,6.613961041E-2,-2.886405501E0,-4.853815228E0,5.647586514E0
3.454400625E0,-2.411469942E-1,-2.691774496E0,-5.373038623E0,6.014428140E0
3.464455625E0,-5.195484265E-1,-2.441811290E0,-5.849458060E0,6.359916079E0
3.474511625E0,-5.667774106E-1,-2.272551500E0,-6.245435597E0,6.670171868E0
3.484567625E0,-4.920021936E-1,-2.164301412E0,-6.516503744E0,6.884118520E0
3.494623625E0,-5.054483776E-1,-2.074847637E0,-6.566972231E0,6.905475731E0
3.504678625E0,-4.295534188E-1,-2.005910865E0,-6.484474450E0,6.801220731E0
3.514734625E0,-3.146706147E-1,-1.805908169E0,-6.599443574E0,6.849304884E0
3.524790625E0,-2.107555061E-1,-1.372665157E0,-6.753891343E0,6.895192223E0
3.534845625E0,-3.126351989E-1,-7.754893148E-1,-6.571797354E0,6.624775083E0
3.544901625E0,-3.968085360E-1,9.693821087E-2,-5.910018842E0,5.924118225E0
3.554957625E0,-6.122209108E-1,1.459305544E0,-4.581677626E0,4.847283464E0
3.565012625E0,-1.595278451E0,3.210742660E0,-2.150463830E0,4.180702865E0
3.575068625E0,-3.827100878E0,5.310969844E0,1.318251845E0,6.677641031E0
3.585124625E0,-5.789625841E0,7.015599267E0,5.479178451E0,1.061884160E1
3.595179625E0,-6.442624758E0,7.145364770E0,1.141070335E1,1.492540795E1
3.605235625E0,-6.256507300E0,5.204047658E0,1.971159312E1,2.132540502E1
3.615291625E0,-5.269770947E0,2.382866386E0,2.938199436E1,2.994578652E1
3.625347625E0,-3.708469643E0,1.752587409E-1,3.612019938E1,3.631049801E1
3.635402625E0,-1.473490304E0,-1.483006209E0,3.708237976E1,3.714126236E1
3.645458625E0,1.476298284E0,-2.541401652E0,3.497672490E1,3.509999236E1
3.655514625E0,4.623943932E0,-2.297986449E0,3.187033779E1,3.228591071E1
3.665569625E0,6.178624141E0,-1.569171072E0,2.788166197E1,2.860113229E1
3.675625625E0,5.517397022E0,-9.320480753E-1,2.370668919E1,2.435810944E1
3.685681625E0,3.412274841E0,-7.044490068E-1,1.927666085E1,1.958901533E1
3.695736625E0,1.307282176E0,-5.628180416E-1,1.494018563E1,1.500782787E1
3.705792625E0,4.990542280E-1,-3.950109923E-1,1.134720142E1,1.136503713E1
3.715848625E0,1.096098216E0,3.133654431E-2,8.328093359E0,8.399973350E0
3.725903625E0,2.609004235E0,5.621868347E-1,5.164059135E0,5.812956553E0
3.735959625E0,3.869610136E0,9.138981718E-1,1.295079330E0,4.181665092E0
3.746015625E0,4.386467454E0,8.259662810E-1,-2.739470819E0,5.237176471E0
3.756070625E0,4.606358723E0,6.859921244E-1,-6.090444036E0,7.666983399E0
3.766126625E0,4.542819369E0,2.379217431E-1,-8.988704767E0,1.007425570E1
3.776182625E0,3.646708720E0,-7.647894949E-1,-1.189102873E1,1.246113766E1
3.786239583E0,2.350283361E0,-2.039167927E0,-1.478882227E1,1.511262061E1
3.796294583E0,8.574380422E-1,-3.331664249E0,-1.682730081E1,1.717536722E1
3.806350583E0,-4.238563669E-1,-4.439789091E0,-1.759255516E1,1.814908753E1
3.816406583E0,-1.309785662E0,-5.196028787E0,-1.758982801E1,1.838793907E1
3.826461583E0,-1.671724948E0,-5.608816484E0,-1.709040446E1,1.806475605E1
3.836517583E0,-1.620099881E0,-5.602192758E0,-1.609427982E1,1.711826890E1
3.846573583E0,-1.303460436E0,-5.514554105E0,-1.481653456E1,1.586313375E1
3.856628583E0,-1.008906144E0,-5.336867162E0,-1.370077706E1,1.473809128E1
3.866684583E0,-6.112808613E-1,-5.078739488E0,-1.266968840E1,1.366339136E1
3.876740583E0,-1.992743520E-1,-4.713068655E0,-1.178876794E1,1.269755000E1
3.886795583E0,3.759286771E-1,-4.291831438E0,-1.148521793E1,1.226667723E1
3.896851583E0,1.188896232E0,-3.680915809E0,-1.122579100E1,1.187354198E1
3.906907583E0,1.890110998E0,-3.070151914E0,-1.080563348E1,1.139122764E1
3.916963583E0,2.149273190E0,-2.741245157E0,-1.035019970E1,1.092064256E1
3.927018583E0,2.022894395E0,-2.660536332E0,-9.853526673E0,1.040492879E1
3.937074583E0,1.655578593E0,-2.684508454E0,-9.035157972E0,9.569827882E0
3.947130583E0,1.189260368E0,-2.824068628E0,-7.876659660E0,8.451714100E0
3.957185583E0,7.257493901E-1,-2.948596487E0,-6.744756238E0,7.396801345E0
3.967241583E0,3.169483610E-1,-2.976699375E0,-5.895213107E0,6.611711806E0
3.977297583E0,-5.720243365E-2,-2.836746853E0,-5.332740782E0,6.040573572E0
3.987352583E0,-2.959619366E-1,-2.639897999E0,-5.198824341E0,5.838187171E0
3.997408583E0,-2.043485292E-1,-2.359744741E0,-4.875424783E0,5.420324749E0
4.007464583E0,-7.198600380E-2,-1.897859728E0,-4.396636055E0,4.789307061E0
4.017519583E0,7.212048976E-2,-1.365388882E0,-3.832748119E0,4.069329958E0
4.027575583E0,-3.240619374E-1,-7.401607302E-1,-2.715524717E0,2.833183463E0
4.037631583E0,-9.171764132E-1,2.739201263E-1,-1.066023427E0,1.432707491E0
4.047686583E0,-1.257910042E0,1.690601953E0,9.169697142E-1,2.298109243E0
4.057742583E0,-1.056352425E0,3.458592975E0,3.139617421E0,4.789044097E0
4.067798583E0,-1.085267491E0,5.453330249E0,5.354741516E0,7.719447715E0
4.077854583E0,-4.525714217E-1,6.516241204E0,8.316441028E0,1.057494263E1
4.087909583E0,1.990145163E-1,6.884494168E0,1.279237585E1,1.452861820E1
4.097965583E0,6.295150378E-1,6.193387191E0,1.822346972E1,1.925744487E1
4.108021583E0,8.097588225E-1,4.912648743E0,2.425106496E1,2.475689760E1
4.118076583E0,1.590318696E0,4.041444601E0,2.928742851E1,2.960769928E1
4.128132583E0,3.203723662E0,3.999589646E0,3.115126358E1,3.156995067E1
4.138188583E0,3.983317138E0,4.321410456E0,3.025867208E1,3.082415676E1
4.148243583E0,3.617940711E0,4.517457072E0,2.791163246E1,2.850537037E1
4.158299583E0,2.331569932E0,4.364035488E0,2.546164676E1,2.593793515E1
4.168355583E0,1.040035185E0,3.852314656E0,2.362736820E1,2.396193918E1
4.178410583E0,6.314463732E-1,3.472321653E0,2.176465345E1,2.204894288E1
4.188466583E0,9.730806188E-1,3.240378980E0,1.955205068E1,1.984262149E1
4.198522583E0,1.456305776E0,2.822746865E0,1.635188826E1,1.665752011E1
4.208577583E0,1.790680411E0,2.287174655E0,1.206936647E1,1.241399658E1
4.218633583E0,2.437550131E0,1.761635098E0,6.938868011E0,7.562598636E0
4.228689583E0,3.243189152E0,9.420390666E-1,1.566215889E0,3.722733631E0
4.238745583E0,3.481633344E0,1.250353977E-1,-3.505053781E0,4.941943606E0
4.248800583E0,2.784656055E0,-1.091671362E0,-7.777700797E0,8.332987784E0
4.258856583E0,1.132975508E0,-2.569387887E0,-1.190375578E1,1.223048606E1
4.268912583E0,-1.147668684E0,-4.190005686E0,-1.630223137E1,1.687115997E1
4.278967583E0,-3.327296671E0,-5.956452166E0,-1.914094464E1,2.032058039E1
4.289023583E0,-5.050634846E0,-6.873516605E0,-2.056374996E1,2.226256848E1
4.299079583E0,-5.622661521E0,-7.194510033E0,-2.165146305E1,2.349810949E1
4.309134583E0,-5.339851581E0,-6.931284757E0,-2.215286179E1,2.381818652E1
4.319190583E0,-4.694114905E0,-6.540979604E0,-2.155560146E1,2.301006482E1
4.329246583E0,-4.060728426E0,-6.153218574E0,-2.014062673E1,2.144752804E1
4.339301583E0,-3.111173933E0,-5.698197023E0,-1.866036900E1,1.975748526E1
4.349357583E0,-1.813748554E0,-5.058578289E0,-1.702096293E1,1.784914780E1
4.359413583E0,-8.151185265E-1,-4.298125674E0,-1.534526202E1,1.595667161E1
4.369469583E0,2.438365672E-2,-3.848015491E0,-1.380543988E1,1.433171267E1
4.379524583E0,6.389344637E-1,-3.684053717E0,-1.186147456E1,1.243684316E1
4.389580583E0,1.146247299E0,-3.498878244E0,-9.617656426E0,1.029831768E1
4.399636583E0,1.342015514E0,-3.352791993E0,-7.649142160E0,8.458817623E0
4.409691583E0,1.142428556E0,-3.342355298E0,-5.921368287E0,6.894859269E0
4.419747583E0,7.629415555E-1,-3.443569724E0,-4.187316844E0,5.474840145E0
4.429803583E0,4.202915023E-1,-3.472716340E0,-2.630755877E0,4.376903039E0
4.439858583E0,1.230227130E-1,-3.365457355E0,-1.571213504E0,3.716200973E0
4.449914583E0,-1.189491040E-1,-3.137532304E0,-1.164358392E0,3.348729358E0
4.459970583E0,-1.816115580E-1,-2.921679415E0,-1.206290529E0,3.166122266E0
4.470025583E0,-1.426389521E-1,-2.740380938E0,-1.598229979E0,3.175590122E0
4.480081583E0,9.274542835E-2,-2.451048429E0,-2.348746421E0,3.396004986E0
4.490137583E0,4.515568567E-1,-2.126873092E0,-2.976875376E0,3.686364028E0
4.500193583E0,6.082875985E-1,-1.839476157E0,-3.107610932E0,3.662093942E0
4.510248583E0,3.877592023E-1,-1.579823675E0,-2.956928185E0,3.374851750E0
4.520304583E0,-6.791650616E-2,-1.054537449E0,-2.590790159E0,2.798009208E0
4.530360583E0,-9.939703084E-1,-1.269554771E-1,-1.624575194E0,1.908753318E0
4.540415583E0,-2.156258713E0,1.096759755E0,1.245187962E-1,2.422362179E0
4.550471583E0,-3.194495879E0,2.298179700E0,2.466922742E0,4.644581969E0
4.560527583E0,-3.467695336E0,3.162495822E0,5.728497294E0,7.405536578E0
4.570582583E0,-2.446814752E0,3.384274864E0,9.464333076E0,1.034474840E1
4.580638583E0,-1.857495229E-1,3.410205511E0,1.326863508E1,1.370111971E1
4.590694583E0,2.133324763E0,3.357675295E0,1.669715933E1,1.716450371E1
4.600749583E0,3.269935778E0,3.142342224E0,1.890933409E1,1.944555760E1
4.610805583E0,3.402427253E0,2.975648046E0,2.001617927E1,2.052019554E1
4.620861583E0,3.318320026E0,2.899251834E0,1.990541429E1,2.038731044E1
4.630916583E0,4.044186653E0,3.185805162E0,1.937682366E1,2.004909213E1
4.640972583E0,4.996841632E0,3.815777745E0,1.917802066E1,2.018229577E1
4.651028583E0,5.699302731E0,4.382875802E0,1.886499114E1,2.018859933E1
4.661084583E0,6.699967151E0,4.829803930E0,1.807120004E1,1.986919316E1
4.671139583E0,8.452913872E0,5.872533512E0,1.712374061E1,1.997901137E1
4.681195583E0,1.037156191E1,6.947455816E0,1.547502109E1,1.988247260E1
4.691251583E0,1.144166319E1,7.414743657E0,1.285127486E1,1.873620414E1
4.701306583E0,1.173021159E1,7.127132567E0,1.020435143E1,1.710329414E1
4.711362583E0,1.081980947E1,6.024353542E0,7.445049191E0,1.444956297E1
4.721418583E0,8.570672702E0,3.909454817E0,4.416120147E0,1.040396005E1
4.731473583E0,4.999573451E0,1.471093092E0,1.502589996E0,5.423801828E0
4.741529583E0,6.783922058E-1,-6.858310336E-1,-1.950924672E0,2.176393178E0
4.751585583E0,-3.220600188E0,-2.626676567E0,-5.442936239E0,6.848156705E0
4.761640583E0,-6.414814231E0,-4.117635575E0,-8.434948887E0,1.136895453E1
4.771696583E0,-8.267923172E0,-4.894252818E0,-1.062994336E1,1.432857146E1
4.781752583E0,-8.813926229E0,-5.119292268E0,-1.197205360E1,1.572331123E1
4.791805958E0,-8.138116153E0,-5.187260887E0,-1.238020445E1,1.569732692E1
4.801861958E0,-6.771523038E0,-5.066286673E0,-1.209876042E1,1.476146296E1
4.811917958E0,-5.262292943E0,-4.789784416E0,-1.179486776E1,1.377507413E1
4.821973958E0,-3.799879750E0,-4.449072130E0,-1.188935642E1,1.325104242E1
4.832028958E0,-2.827493634E0,-4.058109165E0,-1.218741941E1,1.315280055E1
4.842084958E0,-2.237222330E0,-3.904896328E0,-1.208508144E1,1.289583547E1
4.852140958E0,-2.047233869E0,-4.003068740E0,-1.183093338E1,1.265648887E1
4.862195958E0,-1.897852858E0,-4.063559063E0,-1.133418201E1,1.218925919E1
4.872251958E0,-1.562288753E0,-4.086353556E0,-1.061370915E1,1.147997619E1
4.882307958E0,-1.112218477E0,-4.064080050E0,-9.867213836E0,1.072919780E1
4.892362958E0,-6.624616130E-1,-3.945522490E0,-9.280695421E0,1.010630054E1
4.902418958E0,-2.425420667E-1,-3.834430655E0,-8.881311881E0,9.676744588E0
4.912474958E0,1.011192624E-1,-3.737981710E0,-8.598003758E0,9.375948005E0
4.922529958E0,4.023855007E-1,-3.601888643E0,-8.390366206E0,9.139680572E0
4.932585958E0,7.969561976E-1,-3.474368178E0,-8.061520552E0,8.814447630E0
4.942641958E0,1.084944432E0,-3.334001089E0,-7.584419330E0,8.355601968E0
4.952696958E0,1.263957817E0,-3.324423642E0,-7.202821265E0,8.033057705E0
4.962752958E0,1.452887202E0,-3.322761863E0,-6.881046649E0,7.778202274E0
4.972808958E0,1.472016514E0,-3.328651471E0,-6.674934636E0,7.602730143E0
4.982864958E0,1.481373082E0,-3.415301068E0,-6.617881599E0,7.593095841E0
4.992919958E0,1.519864572E0,-3.614257258E0,-6.361464821E0,7.472688840E0
5.002975958E0,1.600005486E0,-3.708017361E0,-5.911350837E0,7.159153513E0
5.013031958E0,1.843277139E0,-3.474415248E0,-5.313508120E0,6.610794239E0
5.023086958E0,2.303248066E0,-2.892484851E0,-4.531504422E0,5.848585521E0
5.033142958E0,2.741000158E0,-2.261338440E0,-2.975763820E0,4.634857466E0
5.043198958E0,2.702913735E0,-1.412376522E0,-2.698302913E-1,3.061594108E0
5.053253958E0,2.062814652E0,-1.237513492E-1,2.793118438E0,3.474482594E0
5.063309958E0,1.152461501E0,1.347656616E0,5.759527298E0,6.026317330E0
5.073365958E0,2.489235717E-1,2.864693620E0,8.701459714E0,9.164269400E0
5.083420958E0,1.311344822E-1,4.657344689E0,1.008020451E1,1.110488986E1
5.093476958E0,4.896322440E-1,6.231717444E0,9.935822725E0,1.173859511E1
5.103532958E0,1.230389829E0,7.466051220E0,1.032701549E1,1.280246183E1
5.113587958E0,2.607152714E0,8.005288464E0,1.142306437E1,1.419042946E1
5.123643958E0,4.836672069E0,8.182680123E0,1.317344007E1,1.624466601E1
5.133699958E0,7.091009054E0,7.727716459E0,1.612985077E1,1.923985699E1
5.143755958E0,7.624946966E0,6.399254206E0,2.022812446E1,2.254478409E1
5.153810958E0,6.853734305E0,5.287764584E0,2.380500895E1,2.533007263E1
5.163866958E0,5.324347104E0,5.110300419E0,2.527684902E1,2.633216548E1
5.173922958E0,4.083044617E0,5.564775256E0,2.436659893E1,2.532526644E1
5.183977958E0,3.965657377E0,6.437776832E0,2.207456056E1,2.333361594E1
5.194033958E0,4.786383383E0,7.233527334E0,1.929812949E1,2.115776891E1
5.204089958E0,5.769991475E0,7.472420007E0,1.642141633E1,1.894182612E1
5.214144958E0,6.020089168E0,6.654778115E0,1.371671657E1,1.639133487E1
5.224200958E0,5.029683688E0,4.983975418E0,1.104801109E1,1.312235794E1
5.234256958E0,3.087020254E0,2.705455227E0,7.601929986E0,8.639358863E0
5.244311958E0,8.109746048E-1,2.464126311E-1,3.576549441E0,3.675609460E0
5.254367958E0,-1.550594321E0,-1.962268124E0,-2.264462900E-1,2.511198292E0
5.264423958E0,-4.011331733E0,-3.726836040E0,-3.634628080E0,6.571956361E0
5.274478958E0,-6.078868303E0,-5.038529356E0,-6.614760940E0,1.030021748E1
5.284534958E0,-7.428740721E0,-5.872826457E0,-9.083133792E0,1.312172240E1
5.294590958E0,-8.196764896E0,-6.120505157E0,-1.111062191E1,1.510276323E1
5.304646958E0,-8.473738731E0,-5.887228149E0,-1.267444336E1,1.634335393E1
5.314701958E0,-8.358744464E0,-5.512476590E0,-1.361299865E1,1.689880882E1
5.324757958E0,-7.754106697E0,-5.079776784E0,-1.398921085E1,1.678178545E1
5.334813958E0,-6.693769687E0,-4.478985609E0,-1.412906923E1,1.626340868E1
5.344868958E0,-5.516902932E0,-3.749529084E0,-1.422200488E1,1.570861576E1
5.354924958E0,-4.468406534E0,-3.037116023E0,-1.439285467E1,1.537351607E1
5.364980958E0,-3.531894255E0,-2.400911186E0,-1.417522247E1,1.480457982E1
5.375035958E0,-2.723598845E0,-1.969493090E0,-1.334758886E1,1.376426613E1
5.385091958E0,-1.979423855E0,-1.721332580E0,-1.207220120E1,1.235391219E1
5.395147958E0,-1.457191337E0,-1.495674641E0,-1.052674468E1,1.073185924E1
5.405202958E0,-1.145010978E0,-1.416563859E0,-9.318533923E0,9.494881662E0
5.415258958E0,-1.100040335E0,-1.414111976E0,-8.579615434E0,8.764679253E0
5.425314958E0,-1.292427033E0,-1.449243948E0,-8.089546841E0,8.319341546E0
5.435369958E0,-1.260307692E0,-1.471476670E0,-7.695487191E0,7.935624876E0
5.445425958E0,-1.118446420E0,-1.399492621E0,-7.277370341E0,7.494639489E0
5.455481958E0,-1.042296449E0,-1.447829506E0,-6.886064145E0,7.113400845E0
5.465537958E0,-7.889086016E-1,-1.486942116E0,-6.464214433E0,6.679778580E0
5.475592958E0,-4.641845036E-1,-1.454980212E0,-6.211728153E0,6.396718011E0
5.485648958E0,-1.737245777E-1,-1.290432840E0,-6.520907282E0,6.649633743E0
5.495704958E0,1.496360958E-1,-1.140059995E0,-7.062231982E0,7.155225246E0
5.505759958E0,5.452467566E-1,-9.605990061E-1,-7.539376473E0,7.619858403E0
5.515815958E0,8.898065469E-1,-8.205855270E-1,-7.904046848E0,7.996191148E0
5.525871958E0,1.149719010E0,-7.962653491E-1,-7.880539287E0,8.003673642E0
5.535926958E0,1.427853956E0,-8.515643679E-1,-7.650205184E0,7.828765429E0
5.545982958E0,1.651936070E0,-1.193237205E0,-6.716465070E0,7.018804090E0
5.556038958E0,1.976484459E0,-1.539034376E0,-5.134833582E0,5.713285705E0
5.566093958E0,2.579675186E0,-1.577373400E0,-3.471566777E0,4.603760072E0
5.576149958E0,2.957828071E0,-1.399302002E0,-1.428567170E0,3.570377732E0
5.586205958E0,2.673162809E0,-1.332746070E0,1.777809082E0,3.476005843E0
5.596261958E0,1.074189795E0,-1.416887795E0,6.639916831E0,6.873859925E0
5.606316958E0,-1.321246789E0,-9.978568795E-1,1.121445442E1,1.133602220E1
5.616372958E0,-3.205084017E0,1.002341402E0,1.331249621E1,1.372952319E1
5.626428958E0,-3.155187387E0,4.083115076E0,1.448404434E1,1.537577889E1
5.636483958E0,-1.581192070E0,6.154443566E0,1.718153332E1,1.831890911E1
5.646539958E0,7.145424704E-1,5.705636435E0,2.199596696E1,2.273515825E1
5.656595958E0,2.378210540E0,3.550866131E0,2.944597693E1,2.975449702E1
5.666650958E0,3.561040871E0,1.264157207E0,3.589687550E1,3.609521819E1
5.676706958E0,2.701213364E0,-7.479413277E-1,3.776718227E1,3.787104470E1
5.686762958E0,4.971077630E-1,-1.600950543E0,3.544263572E1,3.548225734E1
5.696817958E0,-1.022040233E0,-1.254472756E0,3.133362187E1,3.137537454E1
5.706873958E0,-1.603445111E0,-1.730528788E-1,2.723896643E1,2.728666846E1
5.716929958E0,-2.075456040E0,1.032736690E0,2.326145646E1,2.337668538E1
5.726984958E0,-2.641943355E0,2.055632809E0,1.840634490E1,1.870826084E1
5.737040958E0,-3.269011041E0,2.575331290E0,1.277788879E1,1.343849718E1
5.747096958E0,-3.460758199E0,2.220582616E0,7.549713181E0,8.596860101E0
5.757151958E0,-3.173459936E0,1.373226197E0,3.217715172E0,4.723376873E0
5.767207958E0,-2.858569247E0,1.439625424E-1,-4.542082036E-1,2.898007668E0
5.777263958E0,-2.568020808E0,-1.539773903E0,-3.781981423E0,4.823797055E0
5.787319750E0,-2.535429013E0,-3.220489091E0,-6.658802753E0,7.819181822E0
5.797374750E0,-2.919514483E0,-4.708478298E0,-9.154907779E0,1.070073218E1
5.807430750E0,-3.541985380E0,-6.045990579E0,-1.143496696E1,1.341111971E1
5.817486750E0,-3.851700114E0,-6.799180952E0,-1.342346467E1,1.553234879E1
5.827541750E0,-3.166099461E0,-6.886388665E0,-1.488406172E1,1.670274911E1
5.837597750E0,-2.084441602E0,-6.807130827E0,-1.556265331E1,1.711368181E1
5.847653750E0,-1.394933839E0,-6.769808634E0,-1.601401392E1,1.744204091E1
5.857708750E0,-9.416299076E-1,-6.607837252E0,-1.655194139E1,1.784704300E1
5.867764750E0,-4.724892309E-1,-6.317337638E0,-1.686405991E1,1.801467506E1
5.877820750E0,-2.787674680E-2,-5.926291058E0,-1.691959794E1,1.792747883E1
5.887875750E0,6.391116343E-1,-5.388054273E0,-1.680731619E1,1.766141190E1
5.897931750E0,1.195196461E0,-4.932524598E0,-1.646173873E1,1.722635004E1
5.907987750E0,1.588785703E0,-4.673933533E0,-1.580642490E1,1.655937689E1
5.918042750E0,2.001664617E0,-4.323810738E0,-1.503962338E1,1.577631997E1
5.928098750E0,2.500446291E0,-4.033655525E0,-1.410965881E1,1.488640589E1
5.938154750E0,2.664468584E0,-3.969698095E0,-1.281448885E1,1.367731773E1
5.948210750E0,2.409923061E0,-4.030719638E0,-1.183699461E1,1.273455423E1
5.958265750E0,2.230149246E0,-4.066589675E0,-1.115960403E1,1.208501052E1
5.968321750E0,1.913481880E0,-4.141391935E0,-1.049413826E1,1.144287892E1
5.978377750E0,1.825661671E0,-4.183942123E0,-9.705697952E0,1.072562282E1
5.988432750E0,1.863866940E0,-4.186454380E0,-8.948358979E0,1.005353314E1
5.998488750E0,1.883707273E0,-4.137951141E0,-8.271304616E0,9.438510094E0
6.008544750E0,1.930278153E0,-3.993113563E0,-7.490858032E0,8.705393945E0
6.018599750E0,1.864324777E0,-4.060796838E0,-6.526801275E0,7.909798526E0
6.028655750E0,1.612580508E0,-4.117094707E0,-5.557641653E0,7.101990247E0
6.038711750E0,1.384284598E0,-4.165850253E0,-4.878044336E0,6.562459046E0
6.048766750E0,1.324737577E0,-4.090870238E0,-4.396587523E0,6.149807379E0
6.058822750E0,1.463598424E0,-3.901464305E0,-3.857776541E0,5.678554737E0
6.068878750E0,1.807224669E0,-3.605274473E0,-3.282326905E0,5.199782201E0
6.078933750E0,2.333404350E0,-3.331009068E0,-2.505709078E0,4.776921106E0
6.088989750E0,2.530239024E0,-3.154174649E0,-1.033559686E0,4.173628261E0
6.099045750E0,2.211304401E0,-2.894135813E0,3.856776667E-1,3.662599694E0
6.109101750E0,1.653900735E0,-2.557954827E0,1.440943971E0,3.369694358E0
6.119156750E0,1.370562498E-1,-1.717520780E0,2.834533682E0,3.317113691E0
6.129212750E0,-2.874478351E0,2.560264769E-1,3.975552912E0,4.912554967E0
6.139268750E0,-6.120827338E0,3.011168126E0,4.199770244E0,8.010601157E0
6.149323750E0,-8.793939276E0,5.258259534E0,5.171914285E0,1.147742823E1
6.159379750E0,-9.338187584E0,5.580862700E0,8.950402581E0,1.408749382E1
6.169435750E0,-6.819349753E0,3.772383803E0,1.629555151E1,1.806320596E1
6.179490750E0,-3.236943156E0,1.721019461E0,2.615983940E1,2.641546718E1
6.189546750E0,-1.837891342E-1,6.302370228E-1,3.414126537E1,3.414757647E1
6.199602750E0,1.793396882E0,2.641551299E-1,3.736050375E1,3.740445549E1
6.209657750E0,9.843180171E-1,7.619049172E-1,3.615373199E1,3.617515332E1
6.219713750E0,-3.840489978E-1,2.012878699E0,3.193000980E1,3.199569815E1
6.229769750E0,-2.618455894E-1,3.154783929E0,2.789341722E1,2.807247671E1
6.239824750E0,5.537009168E-1,3.541866682E0,2.547771725E1,2.572868984E1
6.249880750E0,2.350936934E0,3.894860752E0,2.364070687E1,2.407446502E1
6.259936750E0,4.366032897E0,4.264674922E0,2.091777080E1,2.178997088E1
6.269991750E0,5.579492698E0,4.194447816E0,1.733311420E1,1.868584970E1
6.280047750E0,5.911359608E0,3.616630058E0,1.277647727E1,1.453487382E1
6.290103750E0,5.522219220E0,2.561076363E0,7.603725082E0,9.740156691E0
6.300159750E0,4.610275188E0,9.142022270E-1,2.619169620E0,5.380562472E0
6.310214750E0,3.425013000E0,-1.181869633E0,-1.568527293E0,3.948139784E0
6.320270750E0,2.313154127E0,-3.088935218E0,-4.767912614E0,6.133937845E0
6.330326750E0,1.108796833E0,-4.467981149E0,-7.797492453E0,9.055008256E0
6.340381750E0,-3.732402004E-2,-5.455045822E0,-1.079779353E1,1.209757261E1
6.350437750E0,-1.241088479E0,-6.056860553E0,-1.367997851E1,1.501225074E1
6.360493750E0,-2.102650270E0,-6.302243636E0,-1.597131638E1,1.729804498E1
6.370548750E0,-2.453408950E0,-6.312767454E0,-1.725782077E1,1.853921860E1
6.380604750E0,-2.342933557E0,-5.966070836E0,-1.787419448E1,1.898868524E1
6.390660750E0,-1.762062530E0,-5.288676165E0,-1.819780513E1,1.903247413E1
6.400715750E0,-1.032088088E0,-4.600077352E0,-1.842949169E1,1.902293567E1
6.410771750E0,-3.982923035E-1,-4.186854037E0,-1.850360749E1,1.897555990E1
6.420827750E0,-1.011292027E-1,-3.849534305E0,-1.833373184E1,1.873378938E1
6.430882750E0,-4.965817329E-2,-3.730270402E0,-1.786515703E1,1.825051284E1
6.440938750E0,2.876442723E-2,-3.849620259E0,-1.675155481E1,1.718822248E1
6.450994750E0,4.033296067E-2,-4.011096382E0,-1.518308949E1,1.570403539E1
6.461049750E0,-9.958703611E-2,-4.089773885E0,-1.372022373E1,1.431714731E1
6.471105750E0,-1.071086385E-1,-4.127995672E0,-1.237291063E1,1.304380075E1
6.481161750E0,-1.626824764E-1,-4.215166255E0,-1.095250033E1,1.173675235E1
6.491217750E0,-2.918388638E-1,-4.211220846E0,-9.603339518E0,1.049017068E1
6.501272750E0,-3.499019528E-1,-4.194461849E0,-8.440694361E0,9.431927845E0
6.511328750E0,-4.814220954E-1,-4.098931794E0,-7.556527526E0,8.610117150E0
6.521384750E0,-5.318954802E-1,-3.959430385E0,-6.884476626E0,7.959649501E0
6.531439750E0,-5.696644368E-1,-3.745779264E0,-6.331220098E0,7.378328252E0
6.541495750E0,-5.457116833E-1,-3.565927974E0,-5.796868202E0,6.827688079E0
6.551551750E0,-4.007364397E-1,-3.330287522E0,-5.445447618E0,6.395647304E0
6.561606750E0,-2.257588402E-1,-2.987512631E0,-5.382884749E0,6.160490808E0
6.571662750E0,-1.138332015E-1,-2.783816395E0,-5.425397515E0,6.098977777E0
6.581718750E0,-2.082573563E-1,-2.672778647E0,-5.352812519E0,5.986628324E0
6.591773750E0,-3.176346779E-1,-2.583730230E0,-5.138928387E0,5.760654360E0
6.601829750E0,-2.644539227E-1,-2.409458061E0,-4.634432375E0,5.230046602E0
6.611885750E0,2.132986155E-2,-1.946282275E0,-3.865108364E0,4.327531898E0
6.621941750E0,4.213313930E-1,-1.563531286E0,-2.557292629E0,3.026862372E0
6.631996750E0,6.546993611E-1,-1.226182611E0,-4.694676822E-1,1.467158803E0
6.642052750E0,5.301266609E-2,-9.435081795E-1,2.109350887E0,2.311358733E0
6.652108750E0,-1.161102443E0,1.342228353E-2,4.498857079E0,4.646294659E0
6.662163750E0,-3.345195583E0,2.251788622E0,6.090646935E0,7.304578398E0
6.672219750E0,-6.106557793E0,5.250207918E0,6.576881508E0,1.039760076E1
6.682275750E0,-8.138237776E0,8.034019343E0,7.442170606E0,1.364413003E1
6.692330750E0,-8.682458602E0,9.290053890E0,1.048026399E1,1.647804970E1
6.702386750E0,-7.739976901E0,8.358029349E0,1.615832437E1,1.977006180E1
6.712442750E0,-5.494640828E0,6.474791461E0,2.306736632E1,2.458083382E1
6.722497750E0,-1.185844497E0,4.882784674E0,2.926080029E1,2.968909306E1
6.732553750E0,3.421008827E0,2.913639493E0,3.406059719E1,3.435574009E1
6.742609750E0,5.610822079E0,1.038558032E0,3.664757847E1,3.708914848E1
6.752664750E0,5.841233366E0,-2.077740839E-1,3.594115997E1,3.641332390E1
6.762720750E0,5.409847430E0,-7.773054600E-2,3.222155197E1,3.267263232E1
6.772776750E0,4.895369051E0,4.558154570E-1,2.737635963E1,2.781433933E1
6.782831750E0,4.268812120E0,5.196734838E-1,2.343062576E1,2.382198651E1
6.792888750E0,3.578411487E0,5.575840527E-1,1.995570502E1,2.028166886E1
6.802944750E0,3.091726971E0,4.772763464E-1,1.589759937E1,1.620247617E1
6.812999750E0,2.708836964E0,2.363617060E-1,1.111396651E1,1.144176194E1
6.823055750E0,2.297534606E0,-2.177082109E-1,5.878731560E0,6.315500525E0
6.833111750E0,2.248168610E0,-6.476244494E-1,9.159154612E-1,2.512484957E0
6.843167750E0,2.485970047E0,-1.003102417E0,-3.345651666E0,4.287149006E0
6.853222750E0,2.623151866E0,-1.494782502E0,-6.807886287E0,7.447322750E0
6.863278750E0,2.359774269E0,-2.235772367E0,-9.623205433E0,1.015742563E1
6.873334750E0,1.612307151E0,-3.168007407E0,-1.197479594E1,1.249125867E1
6.883389750E0,6.616808635E-1,-4.214404947E0,-1.364890056E1,1.430005305E1
6.893445750E0,-1.437969931E-1,-5.108308858E0,-1.474490266E1,1.560537252E1
6.903501750E0,-5.107920018E-1,-5.714878544E0,-1.547784179E1,1.650709943E1
6.913556750E0,-8.340510799E-1,-5.997196149E0,-1.582919630E1,1.694772723E1
6.923612750E0,-1.246141351E0,-6.092118094E0,-1.615937687E1,1.731450929E1
6.933668750E0,-1.403740916E0,-6.032165422E0,-1.655611279E1,1.767660542E1
6.943723750E0,-1.234447504E0,-5.781098261E0,-1.694431412E1,1.794588361E1
6.953779750E0,-9.396181000E-1,-5.433495909E0,-1.717435878E1,1.803785906E1
6.963835750E0,-4.599019298E-1,-5.185634776E0,-1.719506611E1,1.796587366E1
6.973890750E0,2.835844774E-3,-4.877227772E0,-1.703304094E1,1.771755746E1
6.983946750E0,3.529513488E-1,-4.625186757E0,-1.682214941E1,1.744997530E1
6.994002750E0,5.466946002E-1,-4.436758479E0,-1.656621795E1,1.715876680E1
7.004057750E0,5.437694575E-1,-4.305052285E0,-1.623829791E1,1.680807780E1
7.014113750E0,4.127271055E-1,-4.224264230E0,-1.577048791E1,1.633165763E1
7.024169750E0,2.038895958E-1,-4.248425510E0,-1.514521708E1,1.573112490E1
7.034225750E0,-1.412643448E-1,-4.335211639E0,-1.441835438E1,1.505665828E1
7.044280750E0,-5.138009790E-1,-4.360568967E0,-1.371195576E1,1.439778747E1
7.054336750E0,-7.372916476E-1,-4.438599767E0,-1.299628346E1,1.375311422E1
7.064392750E0,-1.047137286E0,-4.490482112E0,-1.219158146E1,1.303440005E1
7.074447750E0,-1.347075110E0,-4.536758146E0,-1.143778532E1,1.237819529E1
7.084503750E0,-1.455935355E0,-4.520073116E0,-1.070092855E1,1.170729177E1
7.094559750E0,-1.550005361E0,-4.341778354E0,-9.959326193E0,1.097459494E1
7.104614750E0,-1.608118206E0,-4.136566813E0,-9.200276325E0,1.021480855E1
7.114670750E0,-1.517838219E0,-3.895869689E0,-8.402711433E0,9.385477767E0
7.124726750E0,-1.254645833E0,-3.403582955E0,-7.480374559E0,8.313514097E0
7.134781750E0,-5.833290508E-1,-2.850150425E0,-6.309798823E0,6.948179000E0
7.144837750E0,2.114475971E-1,-2.327241970E0,-4.625274466E0,5.182077687E0
7.154893750E0,7.772776857E-1,-1.812914887E0,-1.984447929E0,2.798009037E0
7.164948750E0,2.864803840E-1,-1.178004185E0,1.259653974E0,1.748282873E0
7.175004750E0,-7.243453275E-1,5.843181074E-2,5.182914652E0,5.233612014E0
7.185060750E0,-5.175453897E-1,1.198753980E0,9.730021200E0,9.817238760E0
7.195115750E0,1.656919360E0,1.068106205E0,1.516962102E1,1.529717734E1
7.205171750E0,3.637066369E0,6.349915400E-1,2.260699164E1,2.290649552E1
7.215227750E0,5.206256152E0,-4.569069494E-1,3.194797478E1,3.237262670E1
7.225283750E0,5.359569561E0,-1.974880130E0,4.015497231E1,4.055917822E1
7.235338750E0,4.048058971E0,-3.278830855E0,4.365894669E1,4.396863813E1
7.245394750E0,3.559353365E0,-4.257221184E0,4.333124534E1,4.368512048E1
7.255450750E0,4.586605074E0,-3.955305466E0,4.238646159E1,4.281697693E1
7.265505750E0,6.324104621E0,-2.738259276E0,4.056198529E1,4.114324992E1
7.275561750E0,6.578932126E0,-1.893707328E0,3.615399862E1,3.679646847E1
7.285617750E0,5.056565092E0,-1.657743525E0,3.040855025E1,3.087064775E1
7.295672750E0,3.268026955E0,-1.173532746E0,2.466572845E1,2.490894095E1
7.305728750E0,2.358473118E0,-5.313222703E-1,1.905286335E1,1.920563200E1
7.315784750E0,2.238566167E0,-5.412646931E-2,1.369723364E1,1.387906040E1
7.325839750E0,2.257286905E0,2.512241587E-2,8.689324402E0,8.977768869E0
7.335895750E0,1.880829420E0,-3.236301570E-1,4.162270880E0,4.578946895E0
7.345951750E0,1.582256556E0,-9.222116699E-1,3.025325990E-1,1.856215544E0
7.356006750E0,1.243833747E0,-1.528632033E0,-3.259086562E0,3.808606504E0
7.366062750E0,7.746310166E-1,-2.093390766E0,-6.618444686E0,6.984708166E0
7.376118750E0,3.181472960E-1,-2.758024035E0,-9.710850518E0,1.009992733E1
7.386173750E0,1.380773930E-1,-3.364404271E0,-1.251183931E1,1.295702143E1
7.396229750E0,-1.254889224E-1,-3.941429731E0,-1.509936087E1,1.560581028E1
7.406285750E0,-7.924593964E-1,-4.560032403E0,-1.734714751E1,1.795398046E1
7.416341750E0,-1.555463590E0,-4.946509969E0,-1.911406850E1,1.980492470E1
7.426396750E0,-1.972584220E0,-5.230843109E0,-2.023982123E1,2.099769444E1
7.436452750E0,-2.137933539E0,-5.094795942E0,-2.040457472E1,2.113940337E1
7.446508750E0,-2.409641225E0,-5.025250329E0,-1.992846635E1,2.069307331E1
7.456563750E0,-2.492617162E0,-5.042514818E0,-1.925137983E1,2.005631375E1
7.466619750E0,-2.397139878E0,-4.940475057E0,-1.833733139E1,1.914189896E1
7.476675750E0,-2.181849198E0,-4.822281194E0,-1.719156948E1,1.798791047E1
7.486730750E0,-1.821458839E0,-4.679633398E0,-1.620647970E1,1.696663388E1
7.496786750E0,-1.250019078E0,-4.434898480E0,-1.543120673E1,1.610444080E1
7.506842750E0,-8.037071005E-1,-4.251166100E0,-1.473527464E1,1.535730044E1
7.516897750E0,-4.745586702E-1,-4.202404414E0,-1.393422129E1,1.456186567E1
7.526953750E0,-8.394821931E-2,-3.976700428E0,-1.306028241E1,1.365255178E1
7.537009750E0,2.444868141E-1,-3.801778049E0,-1.218349476E1,1.276521973E1
7.547064750E0,2.682357190E-1,-3.808384818E0,-1.123439460E1,1.186538526E1
7.557120750E0,1.765554341E-1,-3.894416656E0,-1.036121117E1,1.107033648E1
7.567176750E0,-7.025031265E-2,-3.907609728E0,-9.343989776E0,1.012840036E1
7.577231750E0,-5.431912044E-1,-3.939118912E0,-8.215743788E0,9.127439974E0
7.587287750E0,-8.301224088E-1,-3.910040708E0,-7.308307959E0,8.329999207E0
7.597343750E0,-7.766632895E-1,-3.677085882E0,-6.224606060E0,7.271168205E0
7.607399750E0,-3.466524723E-1,-3.307001570E0,-5.024874353E0,6.025428581E0
7.617454750E0,4.406769425E-1,-2.721241247E0,-3.718528023E0,4.628909240E0
7.627510750E0,1.019384866E0,-1.763147481E0,-2.257097747E0,3.040119206E0
7.637566750E0,1.183409351E0,-4.100263497E-1,-4.381681216E-1,1.326864953E0
7.647621750E0,1.494193102E0,1.612240931E0,1.381505855E0,2.596245804E0
7.657677750E0,2.514859093E0,3.254692087E0,4.048906233E0,5.771583710E0
7.667733750E0,2.520452540E0,4.553041472E0,7.954293727E0,9.505454031E0
7.677788750E0,2.778563841E0,5.658371637E0,1.223000819E1,1.375902202E1
7.687844750E0,3.742510378E0,5.713578123E0,1.768887751E1,1.896174429E1
7.697900750E0,4.310158659E0,4.037134618E0,2.519691525E1,2.587973071E1
7.707955750E0,3.632181897E0,1.469012068E0,3.355055392E1,3.377854956E1
7.718011750E0,2.595737195E0,-1.606879765E0,4.069447852E1,4.080882866E1
7.728067750E0,1.547625982E0,-3.684774971E0,4.612982566E1,4.630262982E1
7.738122750E0,1.137084931E0,-4.084498819E0,4.754643761E1,4.773510053E1
7.748178750E0,1.340695213E0,-2.952183754E0,4.231025132E1,4.243430474E1
7.758234750E0,2.686223735E0,-5.652978458E-1,3.309896176E1,3.321259745E1
7.768289750E0,4.751145138E0,2.149369085E0,2.256761883E1,2.316226646E1
7.778345750E0,5.730709296E0,3.641859332E0,1.297750689E1,1.464649628E1
7.788401750E0,5.619715694E0,4.172910474E0,4.931006661E0,8.562079946E0
7.798456333E0,4.895625744E0,3.878242380E0,-1.677742757E0,6.467050034E0
7.808512333E0,3.370654945E0,3.127417206E0,-7.127839496E0,8.482225475E0
7.818568333E0,1.584391666E0,2.058598809E0,-1.143824374E1,1.172951601E1
7.828624333E0,1.471628697E-1,4.977585581E-1,-1.435257788E1,1.436196060E1
7.838679333E0,-1.305229511E0,-1.009900682E0,-1.646093182E1,1.654345187E1
7.848735333E0,-2.867492975E0,-2.421898305E0,-1.834077657E1,1.872090255E1
7.858791333E0,-4.437804546E0,-3.697386538E0,-1.964680831E1,2.047832643E1
7.868846333E0,-5.498313464E0,-4.603471660E0,-1.983098625E1,2.108770775E1
7.878902333E0,-5.910097194E0,-5.294688857E0,-1.849146165E1,2.012205588E1
7.888958333E0,-6.085834676E0,-5.837007583E0,-1.663835505E1,1.865322760E1
7.899013333E0,-6.124264916E0,-6.080981487E0,-1.534534388E1,1.760580971E1
7.909069333E0,-5.767840869E0,-5.987281026E0,-1.477344409E1,1.695199613E1
7.919125333E0,-4.789993162E0,-5.508464230E0,-1.449350162E1,1.622802520E1
7.929180333E0,-3.135732531E0,-4.634621532E0,-1.390697912E1,1.499055047E1
7.939236333E0,-1.625707507E0,-3.813106152E0,-1.274742363E1,1.340445868E1
7.949292333E0,-5.986821581E-1,-3.190799854E0,-1.145227238E1,1.190353589E1
7.959347333E0,1.779202473E-1,-2.798350819E0,-1.005717350E1,1.044074527E1
7.969403333E0,4.422835381E-1,-2.590988671E0,-8.729942670E0,9.117057423E0
7.979459333E0,4.272977822E-1,-2.521935686E0,-7.833388510E0,8.240431939E0
7.989514333E0,2.169518736E-1,-2.497062215E0,-7.166897142E0,7.592549141E0
7.999570333E0,-1.201040022E-2,-2.397818886E0,-6.967886572E0,7.368929566E0
8.009626333E0,-2.100100592E-2,-2.220464064E0,-7.246891145E0,7.579467855E0
8.019681333E0,-1.305719800E-2,-1.906758898E0,-7.735266384E0,7.966821575E0
8.029737333E0,-2.621372558E-1,-1.725752198E0,-8.515128831E0,8.692200849E0
8.039793333E0,-3.673006719E-1,-1.501171462E0,-9.275224181E0,9.403095722E0
8.049849333E0,-4.148733260E-1,-1.418802612E0,-9.438031130E0,9.553091246E0
8.059904333E0,-3.432859379E-1,-1.625173364E0,-8.787049502E0,8.942665858E0
8.069960333E0,-2.990138177E-1,-1.790025962E0,-7.520275959E0,7.736158782E0
8.080016333E0,-3.876891088E-1,-1.875555524E0,-6.334868175E0,6.618048517E0
8.090071333E0,-4.286465522E-1,-1.859668054E0,-5.115831301E0,5.460204487E0
8.100127333E0,-3.528141585E-1,-1.614271523E0,-3.831810810E0,4.172903601E0
8.110183333E0,1.961022375E-1,-9.063910778E-1,-2.711546271E0,2.865743194E0
8.120238333E0,9.004067449E-1,-5.412504405E-2,-1.493619783E0,1.744867297E0
8.130294333E0,9.892484625E-1,9.009799182E-1,2.383161378E-1,1.359107029E0
8.140350333E0,2.770676094E-1,2.585720330E0,2.339047644E0,3.497693521E0
8.150405333E0,-6.922579276E-1,4.353555816E0,4.364151848E0,6.203103307E0
8.160461333E0,-3.415114176E-1,5.370970463E0,7.418725026E0,9.165229662E0
8.170517333E0,1.647939206E0,5.414860833E0,1.298702732E1,1.416683804E1
8.180572333E0,2.765012042E0,2.622900143E0,2.282731005E1,2.314327075E1
8.190628333E0,1.132387717E0,-1.574449353E0,3.439382299E1,3.444845791E1
8.200684333E0,-6.960570098E-1,-4.292730448E0,4.251535293E1,4.273718831E1
8.210739333E0,-4.450766434E-1,-4.448831810E0,4.415015958E1,4.437597085E1
8.220795333E0,3.732171405E-1,-3.037241446E0,3.975419947E1,3.987180084E1
8.230851333E0,6.515748283E-1,-8.468018107E-1,3.256239552E1,3.257992059E1
8.240906333E0,1.508010804E0,2.075889903E0,2.494693976E1,2.507854100E1
8.250962333E0,2.909622748E0,4.773904256E0,1.831220473E1,1.914661611E1
8.261018333E0,3.877352141E0,5.920031029E0,1.282815730E1,1.465067394E1
8.271073333E0,5.246739934E0,6.001934148E0,9.266990132E0,1.222409913E1
8.281129333E0,6.272839158E0,5.148963963E0,6.853910891E0,1.062244960E1
8.291185333E0,5.554886445E0,3.491866848E0,4.052971802E0,7.712099450E0
8.301241333E0,3.575596345E0,1.554111860E0,1.012468779E0,4.028057339E0
8.311296333E0,1.584132927E0,-3.539155912E-1,-1.839787229E0,2.453477211E0
8.321352333E0,-2.025679972E-1,-2.057484915E0,-4.738442062E0,5.169826994E0
8.331408333E0,-1.849097458E0,-3.641909910E0,-7.531590906E0,8.567819488E0
8.341463333E0,-3.241560118E0,-4.834876974E0,-1.014879703E1,1.169965079E1
8.351519333E0,-4.220871968E0,-5.549240373E0,-1.231444316E1,1.415116035E1
8.361575333E0,-4.080344665E0,-5.787795078E0,-1.357097705E1,1.530748845E1
8.371630333E0,-3.583322563E0,-5.775380269E0,-1.419717994E1,1.574023939E1
8.381686333E0,-3.283348706E0,-5.584206723E0,-1.470299333E1,1.606679048E1
8.391742333E0,-2.797707918E0,-5.149967930E0,-1.537774564E1,1.645674331E1
8.401797333E0,-2.202025747E0,-4.548701084E0,-1.608408695E1,1.685934317E1
8.411853333E0,-1.501391317E0,-3.956087824E0,-1.651959108E1,1.705290873E1
8.421909333E0,-4.856494130E-1,-3.218780243E0,-1.657948996E1,1.689603175E1
8.431964333E0,3.386607903E-1,-2.752310428E0,-1.618508006E1,1.642092325E1
8.442020333E0,7.469661583E-1,-2.522076604E0,-1.531039975E1,1.553470854E1
8.452076333E0,1.069918038E0,-2.499482378E0,-1.416772166E1,1.442624254E1
8.462131333E0,1.279553218E0,-2.561504379E0,-1.291115268E1,1.322484120E1
8.472187333E0,1.215200151E0,-2.717753968E0,-1.167668267E1,1.205022058E1
8.482243333E0,1.038206907E0,-2.898674422E0,-1.053768599E1,1.097829736E1
8.492298333E0,7.329717978E-1,-3.151415933E0,-9.506552312E0,1.004207184E1
8.502354333E0,2.501633093E-1,-3.370787677E0,-8.751750446E0,9.381786989E0
8.512410333E0,-5.152766517E-2,-3.439727226E0,-8.188952431E0,8.882191194E0
8.522465333E0,-1.517705396E-1,-3.406064513E0,-7.849119274E0,8.557627191E0
8.532521333E0,-1.798757390E-1,-3.324582101E0,-7.729167153E0,8.415772473E0
8.542577333E0,-2.487730424E-1,-3.182143343E0,-7.652556934E0,8.291534955E0
8.552633333E0,-2.123735220E-1,-2.989671130E0,-7.550054659E0,8.123211270E0
8.562688333E0,-2.465732468E-2,-2.783617590E0,-7.322530727E0,7.833810766E0
8.572744333E0,3.303680498E-1,-2.555096708E0,-6.847723367E0,7.316350015E0
8.582800333E0,3.581970687E-1,-2.382163697E0,-6.372923024E0,6.813013789E0
8.592855333E0,4.724389449E-1,-2.148382221E0,-5.671010978E0,6.082689392E0
8.602911333E0,9.568650473E-1,-1.710138816E0,-4.622612228E0,5.020827552E0
8.612967333E0,1.468556424E0,-1.182785600E0,-3.417192934E0,3.902928041E0
8.623022333E0,1.972189241E0,-4.148728144E-1,-2.341349693E0,3.089266618E0
8.633078333E0,2.163162228E0,5.959287773E-1,-1.076991050E0,2.488837410E0
8.643134333E0,1.305021643E0,2.047737314E0,4.848832816E-1,2.476170711E0
8.653189333E0,-1.610201861E-1,3.741416949E0,2.095858437E0,4.291474208E0
8.663245333E0,-9.197395402E-1,5.001703591E0,4.959871441E0,7.103751428E0
8.673301333E0,-6.501440147E-1,5.096214477E0,1.030868330E1,1.151794428E1
8.683356333E0,1.494619401E-1,3.380111062E0,1.856305964E1,1.886888107E1
8.693412333E0,7.394307053E-1,6.916941829E-1,2.917765288E1,2.919521581E1
8.703468333E0,2.069228463E0,-1.117628248E0,3.832774548E1,3.839982907E1
8.713523333E0,3.209384644E0,-2.622612753E0,4.389492628E1,4.409016671E1
8.723579333E0,2.349519861E0,-3.206305793E0,4.534595261E1,4.551984247E1
8.733635333E0,1.514036506E0,-1.765946251E0,4.144988733E1,4.151510607E1
8.743690333E0,1.753922182E0,1.072985634E0,3.488220583E1,3.494275067E1
8.753746333E0,2.412762322E0,3.536637517E0,2.835913157E1,2.868047368E1
8.763802333E0,3.218784628E0,5.233214740E0,2.250507935E1,2.332864565E1
8.773858333E0,3.718180991E0,5.619925609E0,1.766304919E1,1.890480733E1
8.783913333E0,3.766614940E0,5.253208709E0,1.296774437E1,1.448951290E1
8.793972750E0,3.383210379E0,4.245107800E0,8.246163928E0,9.872500809E0
8.804028750E0,2.867391233E0,2.833973226E0,3.780870452E0,5.527053293E0
8.814083750E0,1.762426958E0,9.370768270E-1,-1.947397631E-1,2.005538665E0
8.824139750E0,2.844490613E-1,-1.294627340E0,-4.018625257E0,4.231586012E0
8.834195750E0,-1.623120992E0,-3.282257616E0,-7.568858135E0,8.408052704E0
8.844250750E0,-3.293636005E0,-4.757086202E0,-1.054577620E1,1.202876980E1
8.854306750E0,-4.394253899E0,-5.597237828E0,-1.276878468E1,1.461781108E1
8.864362750E0,-5.255573323E0,-6.146488429E0,-1.462484178E1,1.671186309E1
8.874417750E0,-5.761651007E0,-6.263986473E0,-1.645295621E1,1.852387424E1
8.884473750E0,-5.686690872E0,-5.957715749E0,-1.802058771E1,1.981349065E1
8.894529750E0,-5.126690750E0,-5.306932926E0,-1.888743977E1,2.027762008E1
8.904584750E0,-4.061235964E0,-4.617499131E0,-1.909980831E1,2.006533362E1
8.914640750E0,-2.657424736E0,-3.987687054E0,-1.885749501E1,1.945684128E1
8.924696750E0,-1.226007048E0,-3.232090552E0,-1.845986681E1,1.878073974E1
8.934751750E0,-1.747436012E-1,-2.730449150E0,-1.772030045E1,1.793027986E1
8.944807750E0,2.631963328E-1,-2.607113830E0,-1.651038990E1,1.671703591E1
8.954863750E0,5.307812567E-1,-2.679690348E0,-1.485868948E1,1.510771730E1
8.964918750E0,8.019082046E-1,-2.915775481E0,-1.288284748E1,1.323301034E1
8.974974750E0,5.345193816E-1,-3.329338811E0,-1.084392806E1,1.135609896E1
8.985030750E0,1.920914495E-1,-3.664526648E0,-9.363543450E0,1.005691805E1
8.995085750E0,-2.358598687E-1,-3.831090141E0,-8.740802119E0,9.546439296E0
9.005141750E0,-6.436672731E-1,-3.751150224E0,-8.868894734E0,9.651048097E0
9.015197750E0,-4.689150473E-1,-3.557699480E0,-8.945720716E0,9.638621584E0
9.025252750E0,-1.574128012E-1,-3.381105673E0,-8.740264176E0,9.372772921E0
9.035308750E0,-6.276198456E-2,-3.385306021E0,-8.735510974E0,9.368745268E0
9.045364750E0,-1.916105709E-1,-3.436783445E0,-8.727650562E0,9.381901694E0
9.055420750E0,-3.929004763E-1,-3.658294393E0,-8.353403032E0,9.127805370E0
9.065475750E0,-5.490200745E-1,-3.939958572E0,-7.404753104E0,8.405656733E0
9.075531750E0,-8.172923751E-1,-4.157133517E0,-6.350204253E0,7.633794597E0
9.085587750E0,-9.824914932E-1,-4.193502321E0,-5.652017468E0,7.106057466E0
9.095642750E0,-8.543286391E-1,-4.108617414E0,-4.997058563E0,6.525427861E0
9.105698750E0,-7.561381739E-1,-3.802644606E0,-4.614713809E0,6.027224443E0
9.115754750E0,-3.615467924E-1,-3.445475332E0,-4.363897494E0,5.571859446E0
9.125809750E0,3.449597765E-1,-2.948633909E0,-3.536498353E0,4.617386683E0
9.135865750E0,1.232636914E0,-2.370371325E0,-1.983479630E0,3.327498372E0
9.145921750E0,1.721288580E0,-1.421485607E0,-3.934568024E-1,2.266773910E0
9.155976750E0,1.178636269E0,-3.316662048E-1,1.405070719E0,1.863708574E0
9.166032750E0,-5.865414746E-1,1.539104981E0,2.996674048E0,3.419492710E0
9.176088750E0,-2.891742255E0,4.052144713E0,3.496607478E0,6.083445891E0
9.186143750E0,-3.259269287E0,5.455962081E0,4.120804766E0,7.574390433E0
9.196199750E0,-7.604726417E-1,5.547644083E0,7.608119264E0,9.446594744E0
9.206255750E0,4.355409676E0,4.199433152E0,1.522076077E1,1.637914499E1
9.216310750E0,9.609115983E0,2.376670969E0,2.542062972E1,2.727988435E1
9.226366750E0,1.309200823E1,-5.275329456E-1,3.313119863E1,3.562801276E1
9.236422750E0,1.294706160E1,-2.986547548E0,3.950374217E1,4.167842986E1
9.246477750E0,1.151886749E1,-3.303453480E0,4.213918985E1,4.380991251E1
9.256533750E0,1.031163146E1,-1.611924743E0,3.851500841E1,3.990405891E1
9.266589750E0,9.389620863E0,2.109915691E-1,3.213349758E1,3.347792055E1
9.276644750E0,7.776405054E0,1.643796454E0,2.591016095E1,2.710186309E1
9.286700750E0,5.762431610E0,1.848223738E0,2.090315042E1,2.176150837E1
9.296756750E0,3.862238843E0,1.518106753E0,1.701640561E1,1.751512480E1
9.306811750E0,2.121722572E0,1.096610066E0,1.331248685E1,1.352503481E1
9.316867750E0,9.226957463E-1,6.297310925E-1,9.572563868E0,9.637526015E0
9.326923750E0,-5.634495409E-1,-3.917655683E-1,5.713226121E0,5.754294775E0
9.336979750E0,-2.311237994E0,-1.561859275E0,1.445779034E0,3.141894727E0
9.347034750E0,-4.236495143E0,-2.585283251E0,-3.082873701E0,5.842575703E0
9.357090750E0,-6.082725711E0,-3.185191789E0,-7.611196654E0,1.025062502E1
9.367146750E0,-7.842785570E0,-3.574804632E0,-1.137247426E1,1.426960701E1
9.377201750E0,-9.467778840E0,-3.725251152E0,-1.422971735E1,1.749288965E1
9.387257750E0,-9.967949667E0,-3.538535523E0,-1.617468956E1,1.932619561E1
9.397313750E0,-9.249677696E0,-3.077914970E0,-1.701775982E1,1.961209442E1
9.407368750E0,-8.107324716E0,-2.605669276E0,-1.753081908E1,1.948968558E1
9.417424750E0,-6.539752858E0,-2.238016967E0,-1.753162483E1,1.884502472E1
9.427480750E0,-4.876948568E0,-1.859429342E0,-1.668292019E1,1.748032983E1
9.437535750E0,-3.549961859E0,-1.662390600E0,-1.550325496E1,1.599114398E1
9.447591750E0,-2.426521698E0,-1.603784834E0,-1.401162206E1,1.431033494E1
9.457647750E0,-1.509492927E0,-1.657654355E0,-1.235281726E1,1.255461991E1
9.467702750E0,-8.309763215E-1,-1.780492807E0,-1.074902307E1,1.092713015E1
9.477758750E0,-2.627301635E-1,-1.934204266E0,-9.245454837E0,9.449264968E0
9.487814750E0,1.096209678E-1,-2.043044485E0,-8.176334140E0,8.428433276E0
9.497869750E0,1.281873393E-1,-2.165563095E0,-7.727004268E0,8.025751708E0
9.507925750E0,-3.862509862E-2,-2.278820446E0,-7.665691534E0,7.997333382E0
9.517981750E0,-3.050903173E-1,-2.374413651E0,-7.854663019E0,8.211373298E0
9.528036750E0,-4.368067436E-1,-2.352812575E0,-8.318920248E0,8.656267165E0
9.538092750E0,-4.246149335E-1,-2.099419830E0,-8.755437700E0,9.013631387E0
9.548148750E0,-3.787149484E-1,-2.071008063E0,-8.963621382E0,9.207551666E0
9.558203750E0,-5.560679428E-1,-2.099332414E0,-9.144949386E0,9.399282282E0
9.568259750E0,-8.256460728E-1,-2.124749968E0,-9.397193007E0,9.669720279E0
9.578315750E0,-8.768029971E-1,-2.157619652E0,-9.411705796E0,9.695582089E0
9.588370750E0,-7.277269185E-1,-2.133481907E0,-9.077546777E0,9.353244732E0
9.598426750E0,-3.639752141E-1,-2.019008189E0,-8.572483585E0,8.814553127E0
9.608482750E0,2.045901654E-1,-1.876376765E0,-8.005262151E0,8.224771669E0
9.618538750E0,5.763767114E-1,-1.799572126E0,-7.434230087E0,7.670622331E0
9.628593750E0,6.109436231E-1,-1.774024618E0,-6.836929407E0,7.089712207E0
9.638649750E0,4.979557920E-1,-1.684040793E0,-6.148847196E0,6.394706811E0
9.648705750E0,1.178989532E-1,-1.498513610E0,-5.241975038E0,5.453232574E0
9.658760750E0,-2.816649461E-1,-1.165338824E0,-3.252378636E0,3.466311658E0
9.668816750E0,-9.636655053E-1,-2.826267765E-1,-2.083117354E-1,1.025632917E0
9.678872750E0,-1.782854790E0,6.502875638E-1,2.058665468E0,2.799919396E0
9.688927750E0,-1.972609363E0,1.106472857E0,3.462373200E0,4.135637564E0
9.698983750E0,-8.155231538E-1,1.786900917E0,4.653031783E0,5.050623494E0
9.709039750E0,2.236010934E0,2.755862904E0,6.304814656E0,7.234999177E0
9.719094750E0,6.450240757E0,3.530951684E0,9.454339015E0,1.197738502E1
9.729150750E0,1.076150454E1,2.195843193E0,1.521777752E1,1.876732426E1
9.739206750E0,1.378577218E1,-8.288825067E-1,2.510987125E1,2.865728869E1
9.749261750E0,1.403065708E1,-4.132476393E0,3.653077917E1,3.935015281E1
9.759317750E0,1.196042231E1,-6.137307131E0,4.401512632E1,4.602227272E1
9.769373750E0,1.020330361E1,-5.773702703E0,4.458767165E1,4.610318330E1
9.779428750E0,1.006889600E1,-3.347816598E0,3.991852962E1,4.130471582E1
9.789484750E0,9.625723245E0,-9.718608896E-1,3.382283536E1,3.517930149E1
9.799537708E0,8.704567509E0,7.057127362E-1,2.844034238E1,2.975097646E1
9.809592708E0,8.813013479E0,2.622624447E0,2.311681973E1,2.487839866E1
9.819648708E0,8.417627680E0,3.797942567E0,1.753174411E1,1.981521827E1
9.829704708E0,5.904695536E0,3.214907047E0,1.156864015E1,1.338037711E1
9.839759708E0,1.787154686E0,1.180234167E0,5.654469205E0,6.046478029E0
9.849815708E0,-2.359290266E0,-1.316319340E0,4.306977189E-1,2.735771864E0
9.859871708E0,-5.546657073E0,-3.358864619E0,-4.278931603E0,7.768953075E0
9.869926708E0,-8.428726280E0,-4.703891157E0,-8.889144811E0,1.312200115E1
9.879982708E0,-1.038096658E1,-5.728874440E0,-1.211264054E1,1.694994190E1
9.890038708E0,-1.084076589E1,-6.030459205E0,-1.414245234E1,1.881216631E1
9.900093708E0,-1.078370993E1,-5.825368701E0,-1.631341826E1,2.040467926E1
9.910149708E0,-1.035527742E1,-5.156135573E0,-1.863931785E1,2.193722121E1
9.920205708E0,-9.414980237E0,-4.097145762E0,-2.029281572E1,2.274262135E1
9.930261708E0,-7.968359789E0,-2.877023351E0,-2.166010757E1,2.325795092E1
9.940316708E0,-5.748260298E0,-1.804162044E0,-2.161763340E1,2.244146989E1
9.950372708E0,-3.554392002E0,-1.054428691E0,-2.042199942E1,2.075580841E1
9.960428708E0,-1.938139150E0,-9.016827536E-1,-1.832661929E1,1.845086420E1
9.970483708E0,-8.069653152E-1,-1.075484807E0,-1.533755305E1,1.539637601E1
9.980539708E0,-9.772780426E-2,-1.360953476E0,-1.240784190E1,1.248263937E1
9.990595708E0,-4.783592507E-2,-1.823521006E0,-9.355642108E0,9.531818105E0
1.000065071E1,-1.364528172E-2,-2.174330556E0,-6.756504464E0,7.097763883E0
1.001070671E1,2.956591970E-1,-2.180574944E0,-5.105533769E0,5.559568015E0
1.002076271E1,6.812274476E-1,-1.812476346E0,-4.213366774E0,4.636981876E0
1.003081771E1,1.457847395E0,-1.296953801E0,-4.211327850E0,4.641410394E0
1.004087371E1,2.093751977E0,-8.177600062E-1,-4.959003130E0,5.444652497E0
1.005092971E1,2.043443996E0,-6.021088457E-1,-6.047995589E0,6.412210935E0
1.006098471E1,2.242077420E0,-4.060916121E-1,-6.906106646E0,7.272285099E0
1.007104071E1,2.365831254E0,-2.556428265E-1,-7.873346627E0,8.225089537E0
1.008109671E1,1.911577442E0,-3.716011528E-1,-8.688910419E0,8.904458434E0
1.009115171E1,1.347333411E0,-6.592743688E-1,-9.196178597E0,9.317706305E0
1.010120771E1,1.254955882E0,-8.148923124E-1,-8.809044973E0,8.935224512E0
1.011126371E1,1.213216337E0,-1.063643245E0,-8.008718441E0,8.169626790E0
1.012131871E1,1.149776678E0,-1.308419606E0,-7.410920162E0,7.612863188E0
1.013137471E1,1.093100787E0,-1.393770097E0,-7.199452100E0,7.414146947E0
1.014143071E1,8.282216983E-1,-1.641926222E0,-7.051376626E0,7.287234401E0
1.015148571E1,5.560151351E-1,-1.744519421E0,-6.666868987E0,6.913728584E0
1.016154171E1,4.271836884E-1,-1.632894320E0,-6.042581652E0,6.273884187E0
1.017159771E1,6.887610734E-1,-1.440851001E0,-4.858290687E0,5.114042611E0
1.018165271E1,1.113466931E0,-1.204936533E0,-2.948984157E0,3.374638976E0
1.019170871E1,1.790919416E0,-7.737521801E-1,-1.267571104E-1,1.955032521E0
1.020176471E1,1.823476859E0,-3.751902469E-2,4.076478193E0,4.465887369E0
1.021181971E1,1.444620847E0,2.143346306E0,7.881442682E0,8.294456072E0
1.022187571E1,1.870228710E0,4.731833831E0,1.049070361E1,1.165945406E1
1.023193171E1,1.649478486E0,6.405290871E0,1.402312236E1,1.550472480E1
1.024198671E1,2.370542794E0,6.630911534E0,1.862788655E1,1.991448262E1
1.025204271E1,4.272314602E0,5.053273110E0,2.582167854E1,2.665609356E1
1.026209871E1,4.404720707E0,2.468540667E0,3.343800437E1,3.381708731E1
1.027215371E1,3.288184938E0,-7.834364118E-1,3.773428818E1,3.788538553E1
1.028220971E1,1.396276360E0,-4.015902793E0,3.896001193E1,3.919132037E1
1.029226571E1,2.088809070E-1,-6.021494254E0,3.701062975E1,3.749784979E1
1.030232171E1,-1.130199543E0,-7.032687755E0,3.372497169E1,3.446896812E1
1.031237671E1,-3.623102633E0,-7.444046978E0,2.883254086E1,2.999760191E1
1.032243271E1,-6.151379625E0,-7.514259174E0,2.359303335E1,2.551342362E1
1.033248871E1,-7.312918489E0,-7.093153812E0,1.814112339E1,2.080605598E1
1.034254371E1,-7.460896314E0,-6.525953429E0,1.330275709E1,1.658964701E1
1.035259971E1,-6.839225024E0,-5.562768492E0,8.501087912E0,1.224695423E1
1.036265571E1,-5.876448222E0,-4.813161877E0,3.720865155E0,8.458369138E0
1.037271071E1,-4.575484255E0,-4.238032669E0,-7.396645939E-1,6.280372663E0
1.038276671E1,-3.273890250E0,-3.893922858E0,-4.649911709E0,6.892218184E0
1.039282271E1,-2.754588211E0,-4.042550894E0,-8.079600143E0,9.445099915E0
1.040287771E1,-2.838519729E0,-4.390738845E0,-1.093590359E1,1.212145904E1
1.041293371E1,-3.408961809E0,-4.587569573E0,-1.325800016E1,1.443749921E1
1.042298971E1,-3.963693882E0,-4.719942057E0,-1.525413667E1,1.645227668E1
1.043304471E1,-4.004547793E0,-4.567125660E0,-1.692704144E1,1.798387533E1
1.044310071E1,-3.610633446E0,-4.157017157E0,-1.793872202E1,1.876473323E1
1.045315671E1,-2.905683771E0,-3.709287376E0,-1.840438024E1,1.899797418E1
1.046321171E1,-2.005443964E0,-3.299261611E0,-1.840784179E1,1.880839100E1
1.047326771E1,-1.279200192E0,-2.942098476E0,-1.820191221E1,1.848247561E1
1.048332371E1,-6.325759821E-1,-2.730501483E0,-1.785307902E1,1.807175202E1
1.049337871E1,9.886453953E-3,-2.519590368E0,-1.726634601E1,1.744921597E1
1.050343471E1,5.404270794E-1,-2.425020718E0,-1.645041151E1,1.663697165E1
1.051349071E1,8.601482266E-1,-2.479575240E0,-1.557952253E1,1.579904018E1
1.052354571E1,1.199548836E0,-2.577970431E0,-1.444050012E1,1.471777472E1
1.053360171E1,1.601484540E0,-2.682173661E0,-1.311946325E1,1.348625686E1
1.054365771E1,1.806650034E0,-2.830756673E0,-1.192964257E1,1.239328607E1
1.055371271E1,1.980153149E0,-2.964429578E0,-1.081202799E1,1.138458600E1
1.056376871E1,2.123277200E0,-3.117223462E0,-9.760843627E0,1.046419880E1
1.057382471E1,2.246719963E0,-3.171394699E0,-8.938026949E0,9.746477347E0
1.058387971E1,2.442301579E0,-3.143003836E0,-8.266757237E0,9.175106829E0
1.059393571E1,2.302660421E0,-3.260573801E0,-7.706992173E0,8.679361433E0
1.060399171E1,1.653250378E0,-3.498712184E0,-7.300335866E0,8.262513389E0
1.061404671E1,1.114248192E0,-3.748195626E0,-6.853840724E0,7.890858772E0
1.062410271E1,9.532595079E-1,-3.787889450E0,-6.221821032E0,7.346282537E0
1.063415871E1,1.154612837E0,-3.741524830E0,-5.448211597E0,6.709332937E0
1.064421371E1,1.361019842E0,-3.754848880E0,-4.603160296E0,6.094288296E0
1.065426971E1,1.763956443E0,-3.720339491E0,-3.821872882E0,5.617755832E0
1.066432571E1,1.924431669E0,-3.808820727E0,-2.878529887E0,5.147473836E0
1.067438171E1,1.714062152E0,-4.089411065E0,-1.663085541E0,4.735730718E0
1.068443671E1,1.377388538E0,-4.090019760E0,-2.934770161E-1,4.325689492E0
1.069449271E1,1.222012084E0,-3.902552179E0,1.348097203E0,4.305878902E0
1.070454871E1,9.576100557E-1,-3.305153558E0,3.446569346E0,4.870307723E0
1.071460371E1,3.388483032E-1,-1.460067582E0,5.399402549E0,5.603584870E0
1.072465971E1,-5.114323084E-1,1.045096535E0,6.306056605E0,6.412498708E0
1.073471571E1,-2.552299692E0,4.155851222E0,6.762779696E0,8.337896756E0
1.074477071E1,-4.004190820E0,6.159692026E0,8.206363100E0,1.101452429E1
1.075482671E1,-3.313537003E0,6.028848882E0,1.244472497E1,1.421962467E1
1.076488271E1,-2.261496023E0,3.927084757E0,1.964951207E1,2.016530891E1
1.077493771E1,-1.358207332E0,1.358854911E0,2.845640117E1,2.852118478E1
1.078499371E1,5.849423707E-1,-3.052231953E-2,3.556864322E1,3.557346581E1
1.079504888E1,1.198692584E0,-1.414513972E0,3.766027880E1,3.770589228E1
1.080510387E1,-4.945898788E-1,-1.946582091E0,3.553128419E1,3.558800299E1
1.081515987E1,-1.991802118E0,-1.041461175E0,3.137002195E1,3.145044029E1
1.082521588E1,-2.742938218E0,5.062070538E-1,2.621966109E1,2.636760481E1
1.083527088E1,-1.863210882E0,1.901217345E0,2.231246037E1,2.247069358E1
1.084532687E1,2.549015457E-1,3.177074392E0,2.018883819E1,2.043888363E1
1.085538287E1,2.099628429E0,3.581224290E0,1.772063491E1,1.820039858E1
1.086543788E1,3.188796013E0,3.428458180E0,1.352339826E1,1.431101136E1
1.087549388E1,4.080173634E0,3.150383314E0,8.336653683E0,9.801659377E0
1.088554987E1,4.237757265E0,2.445359234E0,3.436606860E0,5.979016234E0
1.089560487E1,3.124425185E0,1.114011380E0,-8.230827266E-1,3.417677467E0
1.090566088E1,7.505888008E-1,-5.379423782E-1,-4.536309080E0,4.629348293E0
1.091571687E1,-2.006205710E0,-2.181551721E0,-8.112288417E0,8.636738541E0
1.092577187E1,-3.822763998E0,-3.267162151E0,-1.134806564E1,1.241235138E1
1.093582788E1,-4.746525253E0,-3.891784239E0,-1.381354412E1,1.511586874E1
1.094588388E1,-5.337659460E0,-4.214879449E0,-1.563566632E1,1.705080287E1
1.095593887E1,-5.595397124E0,-4.332245346E0,-1.704924123E1,1.845950826E1
1.096599487E1,-5.276811579E0,-4.102609693E0,-1.798212239E1,1.918418287E1
1.097605088E1,-4.618816216E0,-3.680152747E0,-1.833545092E1,1.926306694E1
1.098610587E1,-3.689292530E0,-3.284069375E0,-1.828550868E1,1.894085053E1
1.099616187E1,-2.572933347E0,-2.953001487E0,-1.796157294E1,1.838364235E1
1.100621788E1,-1.643118469E0,-2.753851754E0,-1.735935650E1,1.765306761E1
1.101627288E1,-1.147497434E0,-2.846513165E0,-1.640255322E1,1.668721485E1
1.102632887E1,-8.651361208E-1,-3.113317814E0,-1.532732276E1,1.566422776E1
1.103638487E1,-6.529099669E-1,-3.455824611E0,-1.421430292E1,1.464293081E1
1.104643988E1,-6.133037055E-1,-3.840148647E0,-1.308238138E1,1.364813487E1
1.105649588E1,-6.649707994E-1,-4.148218267E0,-1.195925989E1,1.267571686E1
1.106655187E1,-9.228881928E-1,-4.585993163E0,-1.074298407E1,1.171728478E1
1.107660688E1,-1.405112818E0,-4.857312740E0,-9.605263837E0,1.085490315E1
1.108666288E1,-1.529987856E0,-4.900512554E0,-8.700059890E0,1.010182796E1
1.109671887E1,-1.530614239E0,-4.867917543E0,-7.894041093E0,9.399749248E0
1.110677487E1,-1.412729548E0,-4.746516775E0,-7.335130307E0,8.850387725E0
1.111682988E1,-1.160230404E0,-4.399906987E0,-7.102085434E0,8.434745615E0
1.112688588E1,-8.867189978E-1,-4.035967222E0,-7.020685176E0,8.146491412E0
1.113694187E1,-5.386285855E-1,-3.718698762E0,-6.965353559E0,7.914227153E0
1.114699687E1,-3.461072925E-1,-3.470123392E0,-6.799182122E0,7.641362715E0
1.115705288E1,-4.077918728E-1,-3.381900310E0,-6.599541222E0,7.426808754E0
1.116710888E1,-5.249530445E-1,-3.379049792E0,-6.269143717E0,7.141128492E0
1.117716387E1,-5.048070111E-1,-3.333800237E0,-5.745238457E0,6.661592833E0
1.118721988E1,-4.050535852E-1,-3.175653226E0,-5.139055272E0,6.054645399E0
1.119727588E1,-4.717844222E-2,-2.972247890E0,-4.289341401E0,5.218709896E0
1.120733087E1,6.980441129E-1,-2.595003370E0,-3.344358262E0,4.290226131E0
1.121738687E1,1.167422479E0,-2.451262437E0,-1.791931277E0,3.253087838E0
1.122744288E1,1.237274194E0,-2.261983973E0,3.364949816E-1,2.600124574E0
1.123749788E1,1.473025305E0,-1.685573055E0,2.446292596E0,3.315917300E0
1.124755387E1,1.440135594E0,-1.165391010E-1,4.704175624E0,4.921060881E0
1.125760987E1,6.029091103E-1,2.408660939E0,6.395005619E0,6.860119808E0
1.126766488E1,1.279450727E-1,4.496042814E0,6.552105101E0,7.947380208E0
1.127772087E1,1.835120676E-1,5.012203436E0,9.497131863E0,1.074017568E1
1.128777687E1,-4.101783042E-1,3.925639325E0,1.596483299E1,1.644550950E1
1.129783188E1,-2.390910985E0,1.801471448E0,2.354893599E1,2.373845279E1
1.130788788E1,-3.242629281E0,-8.229969918E-1,3.101555205E1,3.119545540E1
1.131794387E1,-2.404115752E0,-3.570142647E0,3.817397073E1,3.841585261E1
1.132799887E1,-1.130227317E0,-4.791275456E0,4.213313682E1,4.241974720E1
1.133805488E1,1.052399707E0,-3.112984816E0,3.974029245E1,3.987592085E1
1.134811087E1,3.973390612E0,9.766344834E-1,3.303189420E1,3.328434590E1
1.135816587E1,7.014639739E0,4.741950976E0,2.614958572E1,2.748621660E1
1.136822188E1,1.008174116E1,7.773376197E0,2.040301702E1,2.404890821E1
1.137827788E1,1.200361102E1,9.229549241E0,1.656966547E1,2.244604799E1
1.138833287E1,1.154555535E1,8.289576581E0,1.342550535E1,1.955149923E1
1.139838887E1,9.396389015E0,6.471752079E0,9.632577935E0,1.493192081E1
1.140844488E1,6.432631867E0,4.371662596E0,5.068969375E0,9.283568125E0
1.141849987E1,3.159362884E0,2.012101604E0,8.706486565E-1,3.845537125E0
1.142855587E1,2.535035495E-1,-1.809961751E-1,-2.900129501E0,2.916809008E0
1.143861187E1,-2.286201825E0,-2.083257102E0,-6.507615391E0,7.205257595E0
1.144866688E1,-4.341915472E0,-3.377414034E0,-9.339659328E0,1.083920624E1
1.145872287E1,-5.581291886E0,-4.101851601E0,-1.141414151E1,1.335135320E1
1.146877887E1,-6.299897733E0,-4.492431866E0,-1.314614526E1,1.525423845E1
1.147883388E1,-6.607089978E0,-4.564039500E0,-1.485356147E1,1.688527118E1
1.148888988E1,-6.478047776E0,-4.261570635E0,-1.625511099E1,1.800985066E1
1.149894587E1,-5.874840823E0,-3.823713001E0,-1.713579874E1,1.851405234E1
1.150900087E1,-5.126698351E0,-3.406586085E0,-1.745309438E1,1.850671144E1
1.151905688E1,-4.398132357E0,-3.011580355E0,-1.741864025E1,1.821598783E1
1.152911287E1,-3.706740329E0,-2.688263243E0,-1.724113516E1,1.783881792E1
1.153916787E1,-3.126181981E0,-2.505191599E0,-1.669120920E1,1.716523997E1
1.154922388E1,-2.749228653E0,-2.538270468E0,-1.577856175E1,1.621616743E1
1.155927988E1,-2.372820869E0,-2.658947935E0,-1.463272734E1,1.506044463E1
1.156933487E1,-2.005950187E0,-2.816994374E0,-1.328263682E1,1.372544113E1
1.157939087E1,-1.970147686E0,-3.037691681E0,-1.219966582E1,1.272560013E1
1.158944688E1,-2.088291263E0,-3.125212805E0,-1.164927209E1,1.224064768E1
1.159950187E1,-1.992212885E0,-3.035644864E0,-1.109568929E1,1.167468940E1
1.160955787E1,-1.779147363E0,-2.978583348E0,-1.042455757E1,1.098675223E1
1.161961388E1,-1.467950360E0,-2.860123144E0,-9.761392681E0,1.027715767E1
1.162966988E1,-1.261152615E0,-2.780300464E0,-8.878958961E0,9.389168697E0
1.163972487E1,-1.150253519E0,-2.831150775E0,-8.026882816E0,8.588908290E0
1.164978087E1,-7.810623691E-1,-2.794957387E0,-7.451783429E0,7.996932005E0
1.165983688E1,-2.836708700E-1,-2.757190222E0,-6.728529630E0,7.277065210E0
1.166989188E1,1.881721705E-1,-2.698773614E0,-5.835522975E0,6.432115995E0
1.167994787E1,8.162715974E-1,-2.665466119E0,-5.006449192E0,5.730230577E0
1.169000387E1,1.328676554E0,-2.647870678E0,-3.793015119E0,4.812854060E0
1.170005888E1,1.379345893E0,-2.795393590E0,-2.582535644E0,4.048000836E0
1.171011487E1,1.181805606E0,-3.302787775E0,-1.297498907E0,3.740130344E0
1.172017087E1,9.296974216E-1,-3.586280962E0,4.073018396E-1,3.727149477E0
1.173022588E1,9.553089570E-1,-3.465189219E0,2.137367821E0,4.181924525E0
1.174028188E1,1.166657882E0,-2.816972447E0,3.657353284E0,4.761581399E0
1.175033787E1,1.511796438E0,-1.687186595E0,4.571498208E0,5.102031256E0
1.176039287E1,1.651368598E0,-4.359369703E-1,5.382748509E0,5.647215314E0
1.177044888E1,1.965456757E0,1.070588056E0,6.284786189E0,6.671410382E0
1.178050488E1,2.444205140E0,2.955488015E0,8.081564223E0,8.945430591E0
1.179055987E1,3.308727376E0,5.270288426E0,1.133171448E1,1.292792985E1
1.180061646E1,5.113594741E0,7.445833887E0,1.507430672E1,1.757338945E1
1.181067246E1,7.756830915E0,8.621171011E0,1.819144569E1,2.157363465E1
1.182072746E1,9.991281227E0,8.734381292E0,2.034762284E1,2.429281524E1
1.183078346E1,1.061680232E1,7.914363676E0,2.212592484E1,2.578585259E1
1.184083946E1,1.044924802E1,6.793061256E0,2.275612371E1,2.594558983E1
1.185089446E1,9.051162386E0,5.822250965E0,2.193020450E1,2.442859014E1
1.186095046E1,6.587275518E0,3.724509725E0,2.168391510E1,2.296641777E1
1.187100646E1,4.008641721E0,9.760129975E-1,2.300480345E1,2.337183758E1
1.188106146E1,1.894638205E0,-7.181330994E-1,2.541147999E1,2.549212985E1
1.189111746E1,3.280973567E-1,-1.511755653E0,2.608152413E1,2.612736026E1
1.190117346E1,-1.040366430E0,-1.498152691E0,2.291213678E1,2.298462172E1
1.191122846E1,-1.995861694E0,-8.585785416E-1,1.646743860E1,1.661015217E1
1.192128446E1,-2.752598988E0,-3.644934967E-1,9.251484486E0,9.659172940E0
1.193134046E1,-3.401364814E0,-3.430216438E-1,3.171566607E0,4.663237201E0
1.194139546E1,-3.651534427E0,-4.984248483E-1,-1.339816961E0,3.921382472E0
1.195145146E1,-4.061129252E0,-9.646990737E-1,-4.821735064E0,6.377502970E0
1.196150746E1,-4.929106901E0,-1.711670933E0,-7.405040202E0,9.058726876E0
1.197156246E1,-5.879394634E0,-2.447712885E0,-9.390253531E0,1.134616415E1
1.198161846E1,-6.360622237E0,-2.990930913E0,-1.107073571E1,1.311351868E1
1.199167446E1,-6.747537759E0,-3.336545212E0,-1.232491786E1,1.444179352E1
1.200172946E1,-7.006368268E0,-3.457835176E0,-1.330284830E1,1.542762436E1
1.201178546E1,-6.750098839E0,-3.424484412E0,-1.396772584E1,1.588673324E1
1.202184146E1,-5.786082428E0,-3.329632634E0,-1.424316244E1,1.572999935E1
1.203189646E1,-4.596464649E0,-3.023498442E0,-1.416593008E1,1.519679588E1
1.204195246E1,-3.427053094E0,-2.915765833E0,-1.390552082E1,1.461539916E1
1.205200846E1,-2.600686571E0,-2.883048322E0,-1.353589961E1,1.408176539E1
1.206206346E1,-2.039292034E0,-2.877865351E0,-1.301638385E1,1.348580993E1
1.207211946E1,-1.563548389E0,-3.000567709E0,-1.229809551E1,1.275504776E1
1.208217546E1,-1.319592466E0,-3.187592948E0,-1.171923753E1,1.221648892E1
1.209223046E1,-1.417828027E0,-3.407001822E0,-1.172785633E1,1.229473512E1
1.210228646E1,-1.667658356E0,-3.435771000E0,-1.231356724E1,1.289222809E1
1.211234246E1,-1.637105631E0,-3.216508307E0,-1.275366845E1,1.325451242E1
1.212239746E1,-1.354199650E0,-3.118872962E0,-1.274332356E1,1.318914404E1
1.213245346E1,-1.137707221E0,-3.165048131E0,-1.248267574E1,1.292784208E1
1.214250946E1,-9.826280256E-1,-3.307543315E0,-1.173694524E1,1.223361288E1
1.215256446E1,-9.841550260E-1,-3.646078683E0,-1.063427030E1,1.128495262E1
1.216262046E1,-9.690466978E-1,-4.056894699E0,-9.430278307E0,1.031152729E1
1.217267646E1,-1.062380393E0,-4.422626051E0,-8.000803065E0,9.203321301E0
1.218273146E1,-1.259860965E0,-4.705102116E0,-6.928927744E0,8.469667954E0
1.219278746E1,-1.434387781E0,-4.913391924E0,-6.169473833E0,8.016314358E0
1.220284346E1,-1.487481376E0,-4.861000287E0,-5.760803745E0,7.683019226E0
1.221289846E1,-1.098552584E0,-4.684586282E0,-5.909732913E0,7.620833912E0
1.222295446E1,-3.772751812E-1,-4.245428227E0,-6.075439496E0,7.421385481E0
1.223301046E1,3.391148997E-1,-3.853093798E0,-5.553053927E0,6.767402652E0
1.224306546E1,8.610859738E-1,-3.584758055E0,-4.367365478E0,5.715403799E0
1.225312146E1,9.007719035E-1,-3.806546453E0,-2.345221134E0,4.560838529E0
1.226317746E1,5.103788229E-1,-4.029991952E0,6.230500638E-2,4.062659669E0
1.227323246E1,-8.203004021E-3,-3.786661534E0,2.945282285E0,4.797245106E0
1.228328846E1,-3.727780146E-1,-2.610691157E0,5.619304050E0,6.207354491E0
1.229334446E1,1.962613183E-1,-8.627777195E-1,7.577295667E0,7.628781916E0
1.230340046E1,1.337667963E0,1.374834766E0,8.931172843E0,9.134843981E0
1.231345546E1,3.019503040E0,3.867558348E0,9.627336491E0,1.080560105E1
1.232351146E1,4.998054929E0,5.997974414E0,1.001538462E1,1.269898339E1
1.233356646E1,5.863015414E0,7.002459404E0,1.162813090E1,1.478589921E1
1.234362246E1,5.015471445E0,6.733014445E0,1.441354563E1,1.668048965E1
1.235367846E1,3.601862330E0,5.223510700E0,1.748532775E1,1.860094521E1
1.236373446E1,1.764652700E0,3.575251067E0,2.061280576E1,2.099486082E1
1.237378946E1,-4.152781726E-1,2.852859733E0,2.325567239E1,2.343368437E1
1.238384546E1,-2.558350098E0,2.075550618E0,2.581194878E1,2.602133289E1
1.239390146E1,-4.596706724E0,9.054438289E-1,2.786997690E1,2.826101827E1
1.240395646E1,-5.540005866E0,1.388187468E-2,2.829885847E1,2.883604079E1
1.241401246E1,-5.100857751E0,-1.259300217E-1,2.757959481E1,2.804761413E1
1.242406846E1,-3.349939137E0,4.881732175E-1,2.601153530E1,2.623090494E1
1.243412346E1,-1.069743791E0,1.081233058E0,2.294362988E1,2.299398984E1
1.244417946E1,1.134922046E0,1.374317726E0,1.817902621E1,1.826619257E1
1.245423546E1,3.264789644E0,1.374016449E0,1.215973285E1,1.266514412E1
1.246429046E1,4.714883046E0,1.282471271E0,5.940099258E0,7.691530009E0
1.247434646E1,5.212047234E0,8.031463525E-1,2.750553632E-1,5.280732514E0
1.248440246E1,4.783150165E0,5.607392102E-2,-4.242527424E0,6.393802369E0
1.249445746E1,3.296164926E0,-8.299891654E-1,-7.756101767E0,8.468217041E0
1.250451346E1,1.341534581E0,-1.834198460E0,-1.061081594E1,1.085142452E1
1.251456946E1,-3.901879895E-1,-2.325449944E0,-1.246158132E1,1.268270370E1
1.252462446E1,-1.344033388E0,-2.595611480E0,-1.351928416E1,1.383165460E1
1.253468046E1,-1.798334270E0,-2.843688960E0,-1.418895875E1,1.458242516E1
1.254473646E1,-2.233528352E0,-2.808317398E0,-1.476782842E1,1.519750150E1
1.255479146E1,-2.367812875E0,-2.695100977E0,-1.540028432E1,1.581261725E1
1.256484746E1,-2.135847398E0,-2.628480726E0,-1.578625669E1,1.614548405E1
1.257490346E1,-1.601550028E0,-2.534221271E0,-1.555745514E1,1.584366278E1
1.258495846E1,-9.100779665E-1,-2.393810327E0,-1.493696966E1,1.515492106E1
1.259501446E1,-4.741253550E-1,-2.293876441E0,-1.441229900E1,1.460140495E1
1.260507046E1,-2.660366908E-1,-2.319522037E0,-1.401081046E1,1.420400535E1
1.261512546E1,-2.986918554E-1,-2.465333469E0,-1.362338214E1,1.384787445E1
1.262518146E1,-4.790484913E-1,-2.574950636E0,-1.336036269E1,1.361466670E1
1.263523746E1,-5.856226943E-1,-2.682545251E0,-1.306206464E1,1.334752920E1
1.264529246E1,-6.712011538E-1,-2.797282533E0,-1.262862692E1,1.295212409E1
1.265534846E1,-7.088063519E-1,-3.083612790E0,-1.181772102E1,1.223395293E1
1.266540446E1,-7.383445850E-1,-3.359307838E0,-1.068382428E1,1.122382302E1
1.267545946E1,-8.828826396E-1,-3.625603780E0,-9.661344482E0,1.035693303E1
1.268551546E1,-1.188644071E0,-3.939733162E0,-8.898866976E0,9.804295262E0
1.269557146E1,-1.451776815E0,-4.118433428E0,-8.280586486E0,9.361477575E0
1.270562646E1,-1.543979220E0,-4.075892595E0,-7.871308288E0,8.997458888E0
1.271568246E1,-1.471167644E0,-3.879501870E0,-7.535396274E0,8.602154730E0
1.272573846E1,-1.442990643E0,-3.488772502E0,-7.460827902E0,8.361680964E0
1.273579346E1,-1.777410009E0,-3.096291307E0,-7.800443543E0,8.578643579E0
1.274584946E1,-2.363476434E0,-2.537989509E0,-8.665252000E0,9.333488299E0
1.275590546E1,-2.793130133E0,-1.781128254E0,-9.366018577E0,9.934601037E0
1.276596046E1,-2.832313494E0,-9.685713923E-1,-9.122069816E0,9.600639979E0
1.277601646E1,-1.871463058E0,1.689637747E-1,-7.926762112E0,8.146439732E0
1.278607246E1,2.939947505E-1,1.009476759E0,-4.449916468E0,4.572442762E0
1.279612733E1,2.525696323E0,8.249617293E-1,2.582389464E0,3.705190833E0
1.280618333E1,3.581195054E0,-4.660669416E-1,1.267181211E1,1.317638033E1
1.281623933E1,3.980557544E0,-2.037026092E0,2.323247064E1,2.365886738E1
1.282629433E1,4.986248231E0,-1.824902410E0,3.014725222E1,3.061126845E1
1.283635033E1,6.316494470E0,-1.242068765E0,3.029196379E1,3.096843405E1
1.284640633E1,7.448977350E0,-3.078249139E-1,2.619881927E1,2.723894549E1
1.285646133E1,7.966333728E0,6.310480316E-1,2.310296651E1,2.444601718E1
1.286651733E1,7.496348568E0,9.830099219E-1,2.245752512E1,2.369603310E1
1.287657333E1,6.634388289E0,9.634711584E-1,2.225547575E1,2.324326968E1
1.288662833E1,4.953255901E0,1.093037271E0,2.187875134E1,2.245905685E1
1.289668433E1,2.624872117E0,1.115905147E0,2.122775509E1,2.141851499E1
1.290674033E1,4.404080803E-2,7.088447973E-1,2.050239162E1,2.051468895E1
1.291679533E1,-1.895573613E0,2.786563709E-2,1.994993265E1,2.003980510E1
1.292685133E1,-2.444359799E0,-2.764538710E-1,1.845616552E1,1.861938149E1
1.293690733E1,-2.048548615E0,-1.432325175E-1,1.582011674E1,1.595284178E1
1.294696233E1,-1.202916394E0,4.133208172E-1,1.255306569E1,1.261734125E1
1.295701833E1,-5.127625500E-1,1.124264911E0,8.758275354E0,8.845014652E0
1.296707433E1,3.833402148E-2,1.802160835E0,4.356208405E0,4.714425187E0
1.297712933E1,9.591381524E-1,2.260607685E0,-5.043533403E-1,2.506923491E0
1.298718533E1,1.735198229E0,2.323174208E0,-4.652098567E0,5.481794631E0
1.299724133E1,1.412321851E0,1.785089450E0,-7.893565714E0,8.215204017E0
1.300729633E1,2.577319087E-1,8.269623542E-1,-1.068989954E1,1.072493564E1
1.301735233E1,-1.078960904E0,-1.562951973E-1,-1.279552399E1,1.284188534E1
1.302740833E1,-2.058518264E0,-9.259071833E-1,-1.396877366E1,1.414996251E1
1.303746333E1,-2.644852637E0,-1.324061054E0,-1.425980011E1,1.456331976E1
1.304751933E1,-2.703928227E0,-1.500095867E0,-1.415805505E1,1.449179210E1
1.305757533E1,-2.644556476E0,-1.584272968E0,-1.377370821E1,1.411448326E1
1.306763033E1,-2.409246684E0,-1.606241834E0,-1.351071331E1,1.381751991E1
1.307768633E1,-1.844069145E0,-1.623497845E0,-1.344994788E1,1.367250651E1
1.308774233E1,-1.308446357E0,-1.579799848E0,-1.349304653E1,1.364808060E1
1.309779733E1,-8.063134968E-1,-1.490346804E0,-1.355243553E1,1.365795680E1
1.310785333E1,-3.251828852E-1,-1.447737851E0,-1.350627060E1,1.358753231E1
1.311790933E1,1.132976605E-1,-1.459332587E0,-1.328569023E1,1.336607844E1
1.312796433E1,4.435607162E-1,-1.505007235E0,-1.294755160E1,1.304227301E1
1.313802033E1,5.788369640E-1,-1.585723662E0,-1.254792949E1,1.266096783E1
1.314807633E1,7.352477534E-1,-1.747906421E0,-1.202739749E1,1.217596224E1
1.315813133E1,9.524001865E-1,-2.009111777E0,-1.135347548E1,1.156914006E1
1.316818733E1,9.545331046E-1,-2.104479572E0,-1.061597319E1,1.086456877E1
1.317824333E1,9.442538457E-1,-2.262176639E0,-9.968480594E0,1.026545975E1
1.318829833E1,1.004390997E0,-2.460905957E0,-9.408567595E0,9.776809480E0
1.319835433E1,9.906543524E-1,-2.560067133E0,-8.745828386E0,9.166507183E0
1.320841033E1,9.390892924E-1,-2.780236437E0,-7.890395354E0,8.418428725E0
1.321846533E1,8.199407984E-1,-3.006711086E0,-6.935598248E0,7.603626603E0
1.322852133E1,9.073159611E-1,-3.081156082E0,-6.157785249E0,6.945146811E0
1.323857733E1,1.103463222E0,-3.010526979E0,-5.313767152E0,6.206208595E0
1.324863233E1,1.245059762E0,-3.042049611E0,-4.373855302E0,5.471274975E0
1.325868833E1,1.597836462E0,-2.928822666E0,-3.158270624E0,4.594100227E0
1.326874433E1,1.760776727E0,-3.018333305E0,-1.194475645E0,3.692890831E0
1.327879933E1,1.347053475E0,-3.252827995E0,1.115894330E0,3.693326845E0
1.328885533E1,4.241481795E-1,-3.161805558E0,3.116180611E0,4.459540073E0
1.329891133E1,-3.589263261E-1,-2.598057955E0,5.256911166E0,5.874848785E0
1.330896633E1,-4.275199764E-1,-1.893227856E0,8.328275208E0,8.551447420E0
1.331902233E1,-1.996377199E-1,-8.250438827E-1,1.172951460E1,1.176018985E1
1.332907833E1,3.397368607E-1,6.017413482E-1,1.457734485E1,1.459371429E1
1.333913333E1,1.685045929E0,1.661865227E0,1.793258244E1,1.808808140E1
1.334918933E1,3.314844733E0,1.535450179E0,2.230131558E1,2.259855039E1
1.335924533E1,3.783972107E0,1.155404843E0,2.532857817E1,2.563572268E1
1.336930033E1,3.242453865E0,8.946497226E-1,2.603548783E1,2.625186721E1
1.337935633E1,3.443373258E0,1.728446302E0,2.477834582E1,2.507609953E1
1.338941233E1,3.937018884E0,3.147578113E0,2.308506000E1,2.362895175E1
1.339946733E1,3.535693484E0,4.371373452E0,2.093259934E1,2.167449537E1
1.340952333E1,2.436137152E0,4.670753232E0,1.875726438E1,1.948295837E1
1.341957933E1,3.673916692E-1,4.598234602E0,1.680025977E1,1.742203968E1
1.342963433E1,-1.915456046E0,4.022158729E0,1.432432179E1,1.500109755E1
1.343969033E1,-3.582678785E0,3.975886496E0,1.230657631E1,1.341995086E1
1.344974633E1,-3.032291485E0,4.938296385E0,1.303659885E1,1.426655082E1
1.345980133E1,2.248445038E0,6.106044407E0,1.487247253E1,1.623359857E1
1.346985733E1,7.193216629E0,6.538524358E0,1.376756395E1,1.685350063E1
1.347991333E1,8.803834519E0,6.639035656E0,7.925163483E0,1.357912048E1
1.348996833E1,7.702937713E0,5.959770461E0,1.134541100E-1,9.739968439E0
1.350002433E1,4.731116963E0,4.122412458E0,-7.216973282E0,9.563600553E0
1.351008033E1,4.248021175E-1,1.270089207E0,-1.244770705E1,1.251954449E1
1.352013533E1,-3.703593650E0,-1.485084018E0,-1.512831395E1,1.564570111E1
1.353019133E1,-6.169772041E0,-3.906044136E0,-1.523478824E1,1.689443815E1
1.354024733E1,-7.259028211E0,-5.761458049E0,-1.378177503E1,1.660798640E1
1.355030233E1,-7.421731079E0,-6.879722840E0,-1.225420397E1,1.589270882E1
1.356035833E1,-6.829836735E0,-7.107640874E0,-1.176689234E1,1.535008091E1
1.357041433E1,-5.305651217E0,-6.495657835E0,-1.262298201E1,1.515530206E1
1.358046933E1,-3.475190004E0,-5.423443961E0,-1.422549099E1,1.561586641E1
1.359052533E1,-1.599538732E0,-4.082699046E0,-1.564029498E1,1.624333041E1
1.360058133E1,-8.674454056E-3,-2.868678790E0,-1.656402992E1,1.681060619E1
1.361063733E1,7.754461916E-1,-2.177283546E0,-1.678525231E1,1.694362935E1
1.362069233E1,8.679479007E-1,-2.175210708E0,-1.593682483E1,1.610798748E1
1.363074833E1,5.761715472E-1,-2.723210297E0,-1.435883206E1,1.462613777E1
1.364080433E1,-1.338550089E-2,-3.683528345E0,-1.206268193E1,1.261256737E1
1.365085933E1,-9.260478819E-1,-4.832424652E0,-9.653059562E0,1.083473357E1
1.366091533E1,-2.045354866E0,-5.733368025E0,-7.369951646E0,9.558826952E0
1.367097033E1,-2.690256559E0,-6.207515234E0,-5.600387138E0,8.782656878E0
1.368102633E1,-2.726705763E0,-6.191131335E0,-4.828419601E0,8.311357734E0
1.369108233E1,-2.409140849E0,-5.753333927E0,-4.842270486E0,7.896353232E0
1.370113833E1,-2.027472034E0,-5.132232741E0,-5.567699448E0,7.838988002E0
1.371119333E1,-1.493364260E0,-4.601557867E0,-6.483877450E0,8.089816957E0
1.372124933E1,-1.000684812E0,-4.140958949E0,-6.961416628E0,8.161509210E0
1.373130533E1,-6.747750451E-1,-3.834937316E0,-7.318364001E0,8.289783907E0
1.374136033E1,-4.682638867E-1,-3.727179564E0,-7.490052286E0,8.379261412E0
1.375141633E1,-3.624872805E-1,-3.670647513E0,-7.347209485E0,8.221103175E0
1.376147233E1,-4.279279659E-1,-3.708928649E0,-7.009813448E0,7.942087801E0
1.377152733E1,-4.775909997E-1,-3.742551309E0,-6.650157060E0,7.645872899E0
1.378158333E1,-4.987951963E-1,-3.731325532E0,-6.186025547E0,7.241443153E0
1.379163933E1,-1.387612248E-1,-3.638190496E0,-5.195884361E0,6.344517244E0
1.380169446E1,5.267115215E-1,-3.337429311E0,-3.714387025E0,5.021208063E0
1.381175046E1,1.352288926E0,-2.698449678E0,-2.288634120E0,3.787896796E0
1.382180646E1,1.956836499E0,-1.774133230E0,-1.187203463E0,2.895895348E0
1.383186146E1,1.885538329E0,-6.441979811E-1,-3.182405591E-1,2.017801497E0
1.384191746E1,9.521073872E-1,9.716803569E-1,1.399817580E-1,1.367576720E0
1.385197346E1,-2.550974640E-1,3.914379635E0,6.096295345E-1,3.969772136E0
1.386202846E1,-4.146248194E-1,5.763043814E0,2.677694401E0,6.368252119E0
1.387208446E1,-5.938972353E-1,5.490291084E0,8.169908050E0,9.861207211E0
1.388214046E1,-1.500595219E0,2.454415255E0,1.668512459E1,1.693131190E1
1.389219546E1,-2.992753490E0,-1.740467301E0,2.763095208E1,2.784699827E1
1.390225146E1,-4.499666918E0,-4.856369292E0,3.680071003E1,3.739149079E1
1.391230746E1,-5.376399018E0,-6.227322677E0,4.074891844E1,4.157113864E1
1.392236246E1,-5.218875028E0,-5.629686951E0,4.049350270E1,4.121472786E1
1.393241846E1,-4.174266736E0,-3.439088418E0,3.751195832E1,3.789985289E1
1.394247446E1,-3.303170767E0,-3.598305615E-1,3.268715640E1,3.285560239E1
1.395252946E1,-3.225067169E0,2.152704190E0,2.746036775E1,2.773277827E1
1.396258546E1,-2.541311897E0,4.538031669E0,2.339940163E1,2.397048173E1
1.397264146E1,-6.787315636E-1,5.894154176E0,2.050080585E1,2.134208918E1
1.398269646E1,1.403253112E0,6.445006329E0,1.780719592E1,1.898956167E1
1.399275246E1,3.323750335E0,6.280438784E0,1.396831407E1,1.567179076E1
1.400280846E1,4.663412637E0,5.261887146E0,9.603414947E0,1.190211966E1
1.401286346E1,5.178229862E0,3.491045899E0,5.476626726E0,8.306317251E0
1.402291946E1,4.897018843E0,1.218039340E0,1.252504583E0,5.199344296E0
1.403297546E1,3.685442138E0,-1.236237044E0,-3.317069891E0,5.110158358E0
1.404303046E1,2.338749582E0,-3.135950340E0,-7.790474625E0,8.717535719E0
1.405308646E1,1.074922232E0,-4.377945137E0,-1.160543200E1,1.245021741E1
1.406314246E1,-1.878435205E-1,-4.880661842E0,-1.483907558E1,1.562223765E1
1.407319746E1,-9.750798550E-1,-4.972690877E0,-1.733866320E1,1.806398840E1
1.408325346E1,-1.158012920E0,-4.601892327E0,-1.910523686E1,1.968574313E1
1.409330946E1,-7.690240484E-1,-3.922138013E0,-2.019911993E1,2.059075061E1
1.410336446E1,-7.854886383E-2,-3.500808995E0,-2.074828341E1,2.104169903E1
1.411342046E1,4.867436463E-1,-3.261685357E0,-2.068664908E1,2.094786292E1
1.412347646E1,8.223375721E-1,-3.157046801E0,-2.040758253E1,2.066670289E1
1.413353146E1,9.686390738E-1,-3.314332809E0,-1.981395682E1,2.011258185E1
1.414358746E1,8.056696453E-1,-3.575297845E0,-1.871988196E1,1.907526773E1
1.415364346E1,4.843925175E-1,-3.966379800E0,-1.744688932E1,1.789862430E1
1.416369846E1,2.973510888E-1,-4.436824552E0,-1.559801259E1,1.621948910E1
1.417375446E1,7.434721911E-2,-4.876767889E0,-1.346832568E1,1.432425178E1
1.418381046E1,-1.793064942E-1,-5.103458592E0,-1.167189614E1,1.274011773E1
1.419386546E1,-4.492672332E-1,-5.312637470E0,-1.014283170E1,1.145875180E1
1.420392146E1,-6.950207370E-1,-5.435213821E0,-8.555119693E0,1.015946239E1
1.421397746E1,-6.595481647E-1,-5.318657763E0,-7.168066000E0,8.950100243E0
1.422403246E1,-4.370350774E-1,-4.973284954E0,-6.392064469E0,8.110675131E0
1.423408846E1,-1.946469569E-1,-4.568698269E0,-6.065769371E0,7.596344474E0
1.424414446E1,-3.285199642E-2,-4.167613481E0,-6.209184614E0,7.478238760E0
1.425419946E1,2.239852700E-2,-3.773972199E0,-6.659356484E0,7.654436403E0
1.426425546E1,1.805110755E-1,-3.374131114E0,-7.038602214E0,7.807641523E0
1.427431146E1,3.988690583E-1,-3.046583835E0,-7.225073429E0,7.851270957E0
1.428436646E1,6.188826802E-1,-2.750600994E0,-7.083069119E0,7.623561487E0
1.429442246E1,7.345979085E-1,-2.655454516E0,-6.628137615E0,7.177971930E0
1.430447846E1,7.659263398E-1,-2.605601156E0,-5.826267418E0,6.428156234E0
1.431453346E1,9.091560799E-1,-2.541094088E0,-4.858212919E0,5.557513537E0
1.432458946E1,1.068092099E0,-2.417077860E0,-4.124050555E0,4.898048499E0
1.433464546E1,1.331830688E0,-2.074966189E0,-3.503439950E0,4.284080899E0
1.434470046E1,1.548364047E0,-1.929105787E0,-2.608925298E0,3.595187279E0
1.435475646E1,1.607674548E0,-1.820902622E0,-4.989510977E-1,2.479769346E0
1.436481246E1,9.142305129E-1,-1.975492626E0,2.974153497E0,3.685644797E0
1.437486746E1,-5.026939736E-1,-1.884060738E0,7.157309462E0,7.418184740E0
1.438492346E1,-2.562054602E0,-1.142797515E0,1.056427679E1,1.093041875E1
1.439497946E1,-4.845200233E0,-3.480995120E-1,1.413972403E1,1.495088406E1
1.440503446E1,-6.396682600E0,6.679685207E-1,1.870977563E1,1.978432295E1
1.441509046E1,-6.645450051E0,1.810428797E0,2.303078614E1,2.403865156E1
1.442514646E1,-6.217947836E0,1.889573639E0,2.752810657E1,2.828480184E1
1.443520146E1,-4.159938134E0,1.693750825E0,3.143391565E1,3.175318772E1
1.444525746E1,2.626851765E-1,1.998381990E0,3.370138636E1,3.376160506E1
1.445531346E1,2.360349635E0,2.400902561E0,3.350244771E1,3.367119817E1
1.446536846E1,2.373412169E0,2.984208077E0,3.061830391E1,3.085480704E1
1.447542446E1,2.621291282E0,4.870008507E0,2.748813033E1,2.803899891E1
1.448548046E1,4.910128008E0,7.524804043E0,2.387052583E1,2.550556873E1
1.449553546E1,8.151748352E0,1.003644629E1,1.974228867E1,2.359955968E1
1.450559146E1,1.077490636E1,1.167865318E1,1.467389641E1,2.162898017E1
1.451564746E1,1.221624502E1,1.193776085E1,9.333133836E0,1.946417641E1
1.452570246E1,1.117661709E1,1.017394006E1,4.813064228E0,1.586163337E1
1.453575846E1,7.826153165E0,7.018256827E0,1.448023195E0,1.061137943E1
1.454581446E1,2.982967005E0,3.061650063E0,-1.486430047E0,4.525623443E0
1.455586946E1,-1.810465196E0,-7.870616855E-1,-4.235332425E0,4.672824742E0
1.456592546E1,-5.293872585E0,-3.563947814E0,-6.514891081E0,9.119792584E0
1.457598146E1,-7.194672586E0,-5.130318947E0,-9.060914372E0,1.265636817E1
1.458603646E1,-7.801552759E0,-5.788951657E0,-1.169625213E1,1.520455526E1
1.459609246E1,-7.671237034E0,-5.888375958E0,-1.392672049E1,1.695506982E1
1.460614846E1,-6.723353090E0,-5.543777905E0,-1.524787313E1,1.756230581E1
1.461620346E1,-5.496369849E0,-5.056122458E0,-1.546755069E1,1.717613403E1
1.462625946E1,-4.109342177E0,-4.580557592E0,-1.542299257E1,1.660532748E1
1.463631546E1,-2.704626384E0,-4.062731974E0,-1.528700972E1,1.604722596E1
1.464637046E1,-1.703853498E0,-3.823321822E0,-1.509088943E1,1.566064655E1
1.465642646E1,-9.024798752E-1,-3.735099910E0,-1.476726826E1,1.525901875E1
1.466648246E1,-1.078517557E-1,-3.639337428E0,-1.414859308E1,1.460955493E1
1.467653746E1,5.251316404E-1,-3.747117984E0,-1.309156384E1,1.362738788E1
1.468659346E1,8.756744114E-1,-3.886902399E0,-1.211702361E1,1.275527644E1
1.469664946E1,1.006540141E0,-3.951149558E0,-1.143267836E1,1.213799161E1
1.470670446E1,1.038380861E0,-3.959912780E0,-1.099363081E1,1.173111514E1
1.471676046E1,1.032287770E0,-3.902629362E0,-1.058078465E1,1.132471358E1
1.472681646E1,9.831682353E-1,-3.870880151E0,-1.011313486E1,1.087317018E1
1.473687146E1,1.046942647E0,-3.679640531E0,-9.723603296E0,1.044912936E1
1.474692746E1,1.134220819E0,-3.411674917E0,-9.443629839E0,1.010485661E1
1.475698346E1,1.221094145E0,-3.176839042E0,-9.417937174E0,1.001403604E1
1.476703846E1,1.444209641E0,-2.783922230E0,-9.575388073E0,1.007591292E1
1.477709446E1,1.404584523E0,-2.480377770E0,-9.521345767E0,9.938871002E0
1.478715046E1,1.305463985E0,-2.279892971E0,-9.406204151E0,9.766208307E0
1.479720583E1,1.338849247E0,-2.151097960E0,-9.246166443E0,9.587039879E0
1.480726183E1,1.245705733E0,-2.024157686E0,-8.758911531E0,9.075655806E0
1.481731783E1,1.033614138E0,-2.065259080E0,-8.094800565E0,8.417805500E0
1.482737283E1,8.197920598E-1,-2.112813170E0,-7.263270366E0,7.608622406E0
1.483742883E1,6.240733266E-1,-2.092591597E0,-6.577831095E0,6.930820228E0
1.484748483E1,6.642528344E-1,-1.910371600E0,-5.891480829E0,6.228988508E0
1.485753983E1,1.067114152E0,-1.630874253E0,-5.007938477E0,5.373819055E0
1.486759583E1,1.727567758E0,-1.306194009E0,-2.957280187E0,3.665533966E0
1.487765183E1,2.290519263E0,-8.730808058E-1,4.112340921E-1,2.485530540E0
1.488770683E1,1.876272685E0,-9.214736782E-2,4.228803424E0,4.627274438E0
1.489776283E1,-1.094857966E-1,1.154162967E0,7.016461147E0,7.111596609E0
1.490781883E1,-1.965440092E0,2.900592308E0,8.356141868E0,9.060987662E0
1.491787383E1,-1.980741232E0,5.345269611E0,1.007333170E1,1.157442243E1
1.492792983E1,-3.196624558E-1,7.003803679E0,1.310848569E1,1.486565999E1
1.493798583E1,1.611634429E0,6.276662067E0,1.878843940E1,1.987458948E1
1.494804083E1,2.853943807E0,3.872564734E0,2.749108668E1,2.790880864E1
1.495809683E1,4.815900128E0,3.017626303E-1,3.547110231E1,3.579780794E1
1.496815283E1,5.648271157E0,-2.944016948E0,4.257460628E1,4.304842973E1
1.497820783E1,3.756744255E0,-4.988117586E0,4.624236351E1,4.666208983E1
1.498826383E1,5.221771154E-1,-5.531151427E0,4.333442622E1,4.368911536E1
1.499831983E1,-1.523579016E0,-4.516840775E0,3.736889099E1,3.767170234E1
1.500837483E1,-1.271956515E0,-3.205988874E0,3.171184784E1,3.189886411E1
1.501843083E1,-2.352464958E-1,-1.697625336E0,2.539144042E1,2.544921451E1
1.502848683E1,7.031204463E-1,-2.636803360E-1,1.694732894E1,1.696395779E1
1.503854183E1,1.193577001E0,7.524306737E-1,7.355724201E0,7.489823529E0
1.504859783E1,8.991455736E-1,1.106402691E0,-6.745868379E-1,1.577230826E0
1.505865383E1,3.926675013E-1,9.183217366E-1,-6.168254689E0,6.248589320E0
1.506870883E1,-8.771386273E-2,4.254733779E-1,-1.012275119E1,1.013206855E1
1.507876483E1,-7.066937529E-1,-2.834003632E-1,-1.365934135E1,1.368054596E1
1.508882083E1,-1.620512987E0,-8.272798580E-1,-1.664963667E1,1.674875683E1
1.509887583E1,-2.619954024E0,-1.237340852E0,-1.900527754E1,1.922487310E1
1.510893183E1,-3.333074013E0,-1.566259597E0,-2.042264729E1,2.075203783E1
1.511898783E1,-3.756103985E0,-1.679797030E0,-2.103781180E1,2.143640736E1
1.512904283E1,-3.784057184E0,-1.872452845E0,-2.078360995E1,2.120810248E1
1.513909883E1,-3.669689739E0,-2.032041779E0,-1.996430043E1,2.040022324E1
1.514915483E1,-3.343546376E0,-2.301708202E0,-1.890477560E1,1.933565886E1
1.515920983E1,-2.921932891E0,-2.679861379E0,-1.732751724E1,1.777532567E1
1.516926583E1,-2.507159772E0,-3.056370612E0,-1.548395096E1,1.598061290E1
1.517932183E1,-2.001948645E0,-3.360903543E0,-1.356537425E1,1.411817444E1
1.518937683E1,-1.321084383E0,-3.483261501E0,-1.137418164E1,1.196872519E1
1.519943283E1,-5.911493363E-1,-3.477085964E0,-9.262934504E0,9.911687039E0
1.520948883E1,-5.392916232E-2,-3.382125428E0,-7.657038825E0,8.370897462E0
1.521954383E1,2.501322277E-1,-3.237467067E0,-6.804374449E0,7.539447645E0
1.522959983E1,3.068756915E-1,-3.046418066E0,-6.819045698E0,7.474906016E0
1.523965583E1,4.405375961E-1,-2.796411005E0,-7.358660672E0,7.884407065E0
1.524971083E1,6.562739432E-1,-2.423464627E0,-7.883346536E0,8.273513697E0
1.525976683E1,8.413412422E-1,-2.127015910E0,-8.431142934E0,8.735915690E0
1.526982283E1,1.032735229E0,-1.932983222E0,-8.900812345E0,9.166647511E0
1.527987783E1,1.116751678E0,-1.928841931E0,-8.491409016E0,8.779042806E0
1.528993383E1,1.238640542E0,-2.136246471E0,-7.357367853E0,7.760711379E0
1.529998983E1,1.136935023E0,-2.483611280E0,-6.022913373E0,6.613352534E0
1.531004483E1,1.294108984E0,-2.940658892E0,-4.187513310E0,5.278016721E0
1.532010083E1,1.675271431E0,-3.256027299E0,-1.848742824E0,4.101962721E0
1.533015683E1,2.082064417E0,-3.449546748E0,2.790431643E-1,4.038840191E0
1.534021183E1,2.822067126E0,-3.440129515E0,2.729384957E0,5.219970899E0
1.535026783E1,3.516726286E0,-3.069512814E0,5.715674935E0,7.379580790E0
1.536032383E1,3.407204136E0,-2.557668021E0,8.736286899E0,9.719743542E0
1.537037883E1,3.138664910E0,-1.879839779E0,1.051941461E1,1.113746375E1
1.538043483E1,2.901808237E0,-8.257936420E-1,1.172519468E1,1.210713081E1
1.539049083E1,1.955766459E0,7.650958890E-1,1.185969701E1,1.204420223E1
1.540054583E1,6.679525870E-1,3.246480842E0,1.070161619E1,1.120314186E1
1.541060183E1,7.115817328E-1,6.029696143E0,9.724642346E0,1.146439065E1
1.542065783E1,2.726271022E0,8.294235642E0,1.049866752E1,1.365462992E1
1.543071283E1,4.646179431E0,9.162066525E0,1.348863072E1,1.695504659E1
1.544076883E1,5.829753528E0,8.311366814E0,1.808572102E1,2.074025432E1
1.545082383E1,7.100555218E0,6.125618547E0,2.260083570E1,2.446914100E1
1.546087983E1,6.622523704E0,3.233032538E0,2.601278660E1,2.703655648E1
1.547093583E1,4.511322758E0,4.361714436E-1,2.707439538E1,2.745114139E1
1.548099083E1,2.620169494E0,-1.228826283E0,2.620657502E1,2.636588471E1
1.549104683E1,1.174707306E0,-1.771485026E0,2.350734123E1,2.360324529E1
1.550110283E1,1.783929947E-1,-1.740647249E0,1.936602970E1,1.944491664E1
1.551115783E1,-3.701514088E-1,-1.164591403E0,1.482671339E1,1.487698609E1
1.552121383E1,-7.875518283E-1,-7.198784932E-1,9.683638746E0,9.742244212E0
1.553126983E1,-3.946201059E-1,-3.289954890E-1,3.759353283E0,3.794298376E0
1.554132483E1,5.264362273E-1,-1.271260697E-1,-1.938661891E0,2.012885011E0
1.555138083E1,7.745473284E-1,-3.837635806E-1,-6.873518944E0,6.927659108E0
1.556143683E1,-1.556078571E-1,-7.461359999E-1,-1.120680860E1,1.123269744E1
1.557149183E1,-1.952564962E0,-1.180740536E0,-1.467449517E1,1.485084060E1
1.558154783E1,-3.620924253E0,-1.766525710E0,-1.672341450E1,1.720186902E1
1.559160383E1,-5.115629572E0,-2.511417130E0,-1.752618692E1,1.842943596E1
1.560165883E1,-6.046118633E0,-2.948778043E0,-1.751733540E1,1.876453789E1
1.561171483E1,-5.910537490E0,-3.033415613E0,-1.645550560E1,1.774597780E1
1.562177083E1,-5.129316149E0,-3.130939276E0,-1.450049957E1,1.569640573E1
1.563182583E1,-4.129337900E0,-3.187738836E0,-1.288000573E1,1.389631815E1
1.564188183E1,-3.148346145E0,-3.158883704E0,-1.187643759E1,1.268622873E1
1.565193783E1,-2.207026286E0,-3.179583432E0,-1.093093931E1,1.159595403E1
1.566199283E1,-1.265228709E0,-3.125478269E0,-1.004611992E1,1.059688367E1
1.567204883E1,-3.427058210E-1,-3.027669261E0,-9.299040475E0,9.785519005E0
1.568210483E1,2.131748646E-1,-3.086941025E0,-8.248212208E0,8.809520590E0
1.569215983E1,1.862851278E-1,-3.328570195E0,-6.959826770E0,7.717076543E0
1.570221583E1,-2.077327880E-1,-3.510873807E0,-6.205762239E0,7.133082977E0
1.571227183E1,-5.237810066E-1,-3.571735136E0,-6.208745488E0,7.181932815E0
1.572232683E1,-7.736970701E-1,-3.481713743E0,-6.567358148E0,7.473361411E0
1.573238283E1,-8.883577531E-1,-3.263930395E0,-7.501859568E0,8.229235572E0
1.574243883E1,-8.713785352E-1,-3.049382897E0,-8.380380916E0,8.960402943E0
1.575249383E1,-8.504715233E-1,-2.911135131E0,-9.062363312E0,9.556382075E0
1.576254983E1,-8.549586765E-1,-2.875486996E0,-9.576737026E0,1.003560022E1
1.577260583E1,-8.313998792E-1,-3.007070982E0,-9.758156247E0,1.024477013E1
1.578266083E1,-8.599015472E-1,-3.221119129E0,-9.510506199E0,1.007793467E1
1.579271683E1,-6.938828688E-1,-3.480178849E0,-9.013295233E0,9.686723347E0
1.580277258E1,-4.836379708E-1,-3.631959411E0,-8.291264672E0,9.064772733E0
1.581282758E1,-4.814351054E-1,-3.674823887E0,-7.735337135E0,8.577386021E0
1.582288358E1,-4.316926226E-1,-3.541812887E0,-7.348006461E0,8.168475745E0
1.583293958E1,-3.127244420E-2,-3.115194771E0,-6.658253700E0,7.351037937E0
1.584299458E1,5.000945938E-1,-2.200296725E0,-5.609808757E0,6.046598595E0
1.585305058E1,7.334992898E-1,-1.141397545E0,-4.460038583E0,4.661840166E0
1.586310658E1,1.919606181E-1,2.870699295E-1,-3.123382627E0,3.142415799E0
1.587316158E1,-1.876410241E0,2.836105121E0,-1.265511129E0,3.628488124E0
1.588321758E1,-4.898147940E0,5.856272990E0,3.722325790E-1,7.643712689E0
1.589327358E1,-6.688837561E0,7.483719167E0,2.174628618E0,1.027013194E1
1.590332858E1,-5.192481866E0,7.742579497E0,6.093291630E0,1.113721725E1
1.591338458E1,-4.512783831E-1,5.506036466E0,1.526746598E1,1.623624363E1
1.592344058E1,4.685921494E0,1.345107522E0,3.218671660E1,3.255383080E1
1.593349558E1,8.469174979E0,-3.558818052E0,5.140806513E1,5.222242115E1
1.594355158E1,6.452770847E0,-7.407141691E0,5.790216527E1,5.872959000E1
1.595360758E1,8.745160049E-1,-7.911783299E0,5.049978204E1,5.112327336E1
1.596366258E1,-1.575832512E0,-6.084164711E0,4.121385160E1,4.169030909E1
1.597371858E1,5.200813271E-2,-3.157597024E0,3.452350488E1,3.466764360E1
1.598377458E1,2.135875319E0,-6.239519969E-2,2.764708571E1,2.772953669E1
1.599382958E1,2.478098525E0,1.906588890E0,1.839191865E1,1.865579602E1
1.600388558E1,2.356318126E0,2.770218987E0,8.841710443E0,9.560449358E0
1.601394158E1,2.895364605E0,3.020705520E0,1.050613090E0,4.314114730E0
1.602399658E1,3.335965168E0,2.941050948E0,-4.938160729E0,6.645590694E0
1.603405258E1,3.103496831E0,2.336839736E0,-9.235438557E0,1.001927332E1
1.604410858E1,3.029968387E0,1.862647211E0,-1.279708754E1,1.328215391E1
1.605416358E1,3.042789869E0,1.569452030E0,-1.656870536E1,1.691873952E1
1.606421958E1,2.415600853E0,1.019800310E0,-1.948694895E1,1.966256086E1
1.607427558E1,1.116374459E0,1.296500203E-1,-2.115266749E1,2.118250323E1
1.608433058E1,-1.176467098E-1,-7.431398866E-1,-2.133207410E1,2.134533867E1
1.609438658E1,-1.066426227E0,-1.745373115E0,-1.972121296E1,1.982699758E1
1.610444258E1,-1.804290975E0,-2.754491732E0,-1.757600520E1,1.788179659E1
1.611449758E1,-2.357829778E0,-3.507715726E0,-1.603664849E1,1.658425536E1
1.612455358E1,-2.576458633E0,-4.011036741E0,-1.463163508E1,1.538867440E1
1.613460958E1,-2.437711661E0,-4.373148959E0,-1.292664780E1,1.386236248E1
1.614466458E1,-2.022955352E0,-4.543688850E0,-1.107554797E1,1.214105512E1
1.615472058E1,-1.419965331E0,-4.435370642E0,-9.509264835E0,1.058843388E1
1.616477658E1,-8.069042849E-1,-4.236698627E0,-8.387675902E0,9.431533111E0
1.617483158E1,-2.322263358E-1,-3.921299522E0,-7.672774267E0,8.619859857E0
1.618488758E1,-5.852405056E-3,-3.711216957E0,-7.275442514E0,8.167326939E0
1.619494358E1,-2.280909656E-1,-3.711370739E0,-7.215854709E0,8.117564748E0
1.620499858E1,-5.471777630E-1,-3.676520457E0,-7.486450986E0,8.358418184E0
1.621505458E1,-7.717609839E-1,-3.669573380E0,-7.707529532E0,8.571312343E0
1.622511058E1,-9.560123771E-1,-3.689874913E0,-7.956264823E0,8.822204173E0
1.623516558E1,-8.650680008E-1,-3.615558556E0,-8.306011934E0,9.100024207E0
1.624522158E1,-5.944845150E-1,-3.436979035E0,-8.473144069E0,9.162991167E0
1.625527758E1,-3.589622500E-1,-3.317125440E0,-8.573923169E0,9.200235518E0
1.626533258E1,-4.099037044E-2,-3.219549444E0,-8.729884783E0,9.304733589E0
1.627538858E1,3.510457047E-1,-3.215254956E0,-8.442688261E0,9.041022210E0
1.628544458E1,7.781772798E-1,-3.271926755E0,-7.576045532E0,8.289000572E0
1.629549958E1,1.025181868E0,-3.415908009E0,-6.557261176E0,7.464388757E0
1.630555558E1,9.526511782E-1,-3.484764528E0,-5.474291348E0,6.558886631E0
1.631561158E1,7.928143224E-1,-3.558983236E0,-4.012169346E0,5.421477574E0
1.632566658E1,8.941180645E-1,-3.254676299E0,-2.211714583E0,4.035349591E0
1.633572258E1,1.283065348E0,-2.421479059E0,-1.458634722E-1,2.744283818E0
1.634577858E1,1.420415713E0,-1.438491357E0,2.536856611E0,3.243837179E0
1.635583358E1,6.509624787E-1,4.421509525E-1,5.478861532E0,5.535085663E0
1.636588958E1,-1.053977944E0,3.080075516E0,7.440184307E0,8.121211561E0
1.637594558E1,-2.090253004E0,5.475903425E0,8.980136257E0,1.072368981E1
1.638600058E1,-4.312553605E-1,7.196377634E0,1.201753441E1,1.401409881E1
1.639605658E1,1.886552675E0,7.779272529E0,1.701659272E1,1.880533408E1
1.640611258E1,2.260945215E0,6.820495223E0,2.413296056E1,2.517996850E1
1.641616758E1,2.242325488E0,4.891163734E0,3.027237328E1,3.074683870E1
1.642622358E1,1.846564590E0,3.142504191E0,3.389544375E1,3.409085274E1
1.643627958E1,8.488030203E-1,2.649948778E0,3.436714565E1,3.447960840E1
1.644633458E1,-4.677058796E-1,2.604256881E0,3.269802052E1,3.280489977E1
1.645639058E1,-2.359160897E0,2.542240727E0,2.983774272E1,3.003863377E1
1.646644658E1,-3.954328981E0,2.779020216E0,2.573314234E1,2.618309160E1
1.647650158E1,-4.893996125E0,2.855985070E0,2.056854936E1,2.133478548E1
1.648655758E1,-4.553856281E0,2.768877929E0,1.571644561E1,1.659551007E1
1.649661358E1,-3.136754332E0,2.366604694E0,1.138966507E1,1.204842379E1
1.650666858E1,-1.681492868E0,1.771749612E0,7.118789175E0,7.526199192E0
1.651672458E1,-6.391666713E-1,9.278496283E-1,2.232645861E0,2.500829164E0
1.652678058E1,1.100789510E-2,-8.851544291E-2,-2.734587809E0,2.736042150E0
1.653683558E1,5.378241548E-1,-1.101033631E0,-7.041090204E0,7.146921095E0
1.654689158E1,1.015134232E0,-1.840430715E0,-1.068457974E1,1.088934924E1
1.655694758E1,1.165276624E0,-2.426590403E0,-1.340219367E1,1.366985756E1
1.656700258E1,8.113900495E-1,-3.185102619E0,-1.507329282E1,1.542748809E1
1.657705858E1,1.583211479E-1,-3.880411405E0,-1.604134615E1,1.650477035E1
1.658711458E1,-4.802229776E-1,-4.549985717E0,-1.635306004E1,1.698103521E1
1.659716958E1,-9.252540493E-1,-5.132910433E0,-1.627374724E1,1.708911097E1
1.660722558E1,-1.353199484E0,-5.506712404E0,-1.611197232E1,1.708071083E1
1.661728158E1,-1.627745262E0,-5.785096003E0,-1.585680685E1,1.695745305E1
1.662733658E1,-1.595696673E0,-5.887936247E0,-1.548168809E1,1.664021355E1
